# Sensor type: Respeck
# Activity type: Running
# Activity code: 11
# Subject id: s1788488
# Notes: 
timestamp,accel_x,accel_y,accel_z,gyro_x,gyro_y,gyro_z
1635452897149,-0.0012207031,-0.9949341,0.101501465,5.53125,1.453125,2.125
1635452897187,0.040527344,-0.9963989,0.11248779,5.046875,3.34375,2.46875
1635452897225,0.051757812,-0.99713135,0.13421631,6.5,0.421875,3.265625
1635452897262,0.030029297,-0.9644165,0.08074951,6.71875,-0.59375,5.875
1635452897300,0.022216797,-0.98150635,0.06072998,5.046875,2.828125,6.5
1635452897341,0.012939453,-0.99884033,0.07318115,6.734375,4.046875,4.734375
1635452897379,-0.036621094,-0.991272,0.059509277,2.671875,6.640625,5.4375
1635452897412,-0.07373047,-0.9873657,0.020935059,4.28125,11.171875,4.1875
1635452897450,-0.056152344,-1.0403442,0.04901123,4.390625,16.484375,3.25
1635452897487,0.030273438,-1.0733032,0.046325684,10.546875,10.078125,4.9375
1635452897544,0.07055664,-1.0193481,0.0211792,1.4375,5.453125,0.703125
1635452897581,0.03149414,-0.9607544,0.043640137,2.234375,3.28125,-1.40625
1635452897619,-0.076660156,-0.98760986,0.035827637,3.0,4.859375,-2.015625
1635452897656,-0.080322266,-0.94415283,0.043395996,5.5,4.609375,3.578125
1635452897694,-0.078125,-0.9949341,0.015808105,17.9375,5.0625,9.0625
1635452897731,-0.11328125,-1.1443481,-0.028625488,12.4375,8.0,11.265625
1635452897769,-0.18457031,-1.2627563,-0.046691895,16.84375,10.03125,12.203125
1635452897806,-0.21166992,-1.28302,0.0602417,3.953125,8.75,11.203125
1635452897844,-0.24121094,-1.175354,-0.08258057,9.9375,2.9375,14.21875
1635452897881,-0.14282227,-1.0325317,-0.024719238,-13.0,-2.5,11.21875
1635452897938,0.005126953,-0.6433716,-0.05621338,-26.53125,2.96875,-0.953125
1635452897975,0.1887207,-0.14385986,0.02557373,-0.46875,20.4375,5.1875
1635452898013,0.62646484,-0.28155518,0.1227417,8.546875,13.09375,9.125
1635452898051,0.7277832,-1.0352173,0.19744873,1.0,0.609375,-12.421875
1635452898091,0.10595703,-2.0,0.038269043,-29.734375,15.390625,-2.984375
1635452898125,-0.19360352,-1.1712036,0.17034912,-9.71875,-6.578125,5.03125
1635452898163,-0.14575195,-1.482727,0.44110107,-8.46875,6.609375,14.625
1635452898201,-0.095458984,-2.0,0.35394287,2.71875,2.5625,12.40625
1635452898238,0.37841797,-1.3743286,0.31097412,2.390625,-5.46875,3.953125
1635452898275,0.09838867,-0.4121704,0.27801514,3.15625,-3.875,-18.453125
1635452898312,-0.009765625,0.30340576,-0.05328369,25.171875,1.34375,-8.46875
1635452898369,0.08666992,0.20062256,-0.097229004,-0.65625,1.4375,-3.0625
1635452898406,0.08642578,0.031188965,-0.16949463,-4.296875,7.03125,-14.890625
1635452898445,0.63623047,-0.20367432,-0.4697876,54.453125,-24.140625,2.625
1635452898481,0.6496582,-2.0,0.008972168,-122.953125,30.359375,32.71875
1635452898519,-1.0356445,-1.9907837,0.11785889,-49.203125,37.9375,-58.171875
1635452898557,-0.21484375,-1.1814575,0.04949951,64.75,-7.515625,24.03125
1635452898594,0.09472656,-1.7317505,0.3522339,20.796875,28.359375,16.171875
1635452898650,-0.3515625,-2.0,-0.11407471,-44.078125,13.890625,-31.984375
1635452898669,-0.44799805,-1.0391235,-0.027404785,-21.640625,14.640625,1.015625
1635452898706,0.16040039,-0.2078247,-0.023010254,-18.515625,0.578125,8.453125
1635452898763,0.41479492,0.22698975,-0.043029785,-1.421875,30.1875,23.09375
1635452898800,0.6447754,0.21356201,0.0289917,-9.046875,13.1875,-7.578125
1635452898838,0.26904297,-0.019836426,-0.39971924,-10.6875,16.75,-39.375
1635452898875,0.6142578,-1.0462036,0.33441162,23.328125,-23.78125,-61.125
1635452898913,-0.9975586,-2.0,0.33148193,-60.21875,31.875,-0.109375
1635452898950,-0.21606445,-1.0889282,0.21868896,-3.5,-39.875,-6.90625
1635452898989,-0.29248047,-1.4988403,0.6473999,-17.28125,-9.828125,21.984375
1635452899025,0.31225586,-1.3381958,0.12713623,14.328125,-34.0,14.609375
1635452899062,0.0949707,-0.4102173,0.3632202,21.9375,-6.875,-22.578125
1635452899100,0.115722656,0.44207764,-0.010559082,40.828125,-6.0625,-13.515625
1635452899157,0.25219727,0.45892334,-0.1951294,-13.484375,-0.71875,-6.671875
1635452899194,0.013671875,-0.00592041,-0.06890869,-37.515625,-9.59375,-11.375
1635452899233,1.999939,-1.5610962,-1.1265259,214.23438,-107.96875,60.765625
1635452899268,-0.81469727,-2.0,-0.60284424,-70.015625,-55.09375,-16.53125
1635452899306,-0.7614746,-0.8320923,0.43328857,27.5,36.796875,-24.28125
1635452899344,-0.50805664,-1.6028442,0.21429443,39.34375,20.9375,6.84375
1635452899381,-0.10913086,-1.4529419,0.1071167,-7.890625,0.640625,25.21875
1635452899419,0.25512695,-1.1167603,-0.023498535,-7.203125,12.859375,0.890625
1635452899457,0.19335938,-0.4763794,-0.16998291,-37.84375,3.59375,11.671875
1635452899495,0.19897461,0.4887085,0.18035889,14.28125,42.421875,14.296875
1635452899532,0.1496582,0.5829468,0.06512451,-13.65625,15.953125,-18.09375
1635452899588,0.5666504,-0.30010986,-0.22979736,-2.53125,-4.25,-25.15625
1635452899625,1.999939,-2.0,-0.21270752,-42.671875,-24.109375,18.5625
1635452899681,-1.0927734,-0.95758057,-0.02130127,-14.625,-83.6875,-20.890625
1635452899699,-0.37890625,-1.2183228,0.354187,66.109375,-37.9375,50.265625
1635452899738,0.24780273,-1.9026489,0.7116089,-58.34375,32.765625,28.8125
1635452899777,0.26611328,-1.2849731,-0.047912598,3.859375,-23.359375,-19.96875
1635452899812,-0.18457031,0.13372803,0.12420654,9.359375,-10.203125,-18.046875
1635452899850,0.039794922,0.48162842,-0.17730713,20.140625,7.890625,0.953125
1635452899887,0.52124023,0.12957764,-0.17144775,-8.65625,0.109375,-8.96875
1635452899926,-0.19116211,-0.22393799,-0.09869385,-4.5,9.359375,-15.71875
1635452899981,0.27783203,-2.0,-0.06719971,-118.875,79.0625,70.015625
1635452900021,-0.7397461,-1.1016235,1.118103,-65.84375,48.875,-53.09375
1635452900057,-0.9355469,-1.6734009,0.006286621,100.96875,-6.921875,-15.875
1635452900094,0.05444336,-1.4006958,0.07879639,-19.78125,10.71875,42.28125
1635452900151,0.3293457,-1.4209595,0.19036865,-11.328125,-2.4375,-16.703125
1635452900169,-0.109375,-0.9973755,-0.32354736,-34.8125,14.890625,-16.984375
1635452900208,0.053955078,0.23114014,0.14569092,-5.921875,34.765625,24.875
1635452900245,0.5678711,0.56365967,0.04486084,30.75,19.859375,4.390625
1635452900285,0.265625,0.4196167,-0.36895752,-27.5,-13.546875,-32.65625
1635452900320,0.6994629,-0.9175415,0.5541382,17.359375,-8.765625,-47.515625
1635452900379,-1.4887695,-2.0,0.27679443,-82.75,73.140625,-51.828125
1635452900413,-0.890625,-1.0029907,0.18133545,66.15625,-67.046875,3.25
1635452900450,0.17602539,-1.5791626,0.52996826,-10.125,8.046875,45.328125
1635452900488,0.5078125,-1.515686,0.46258545,2.40625,-49.09375,17.875
1635452900525,-0.18652344,-0.6375122,0.15423584,21.65625,7.296875,-22.984375
1635452900563,-0.22021484,0.3607788,0.19110107,26.890625,-2.3125,-8.96875
1635452900600,0.61035156,0.3949585,-0.40411377,22.046875,0.328125,12.84375
1635452900637,0.15405273,-0.014465332,-0.29595947,-42.03125,1.265625,-5.859375
1635452900677,0.78564453,-0.62213135,-1.1172485,77.34375,-50.765625,0.75
1635452900713,-0.4177246,-2.0,0.01727295,-126.71875,18.578125,-6.109375
1635452900769,-1.1984863,-1.2051392,0.7872925,22.21875,47.765625,-41.109375
1635452900807,-0.6557617,-1.4370728,0.15252686,47.484375,-4.65625,26.53125
1635452900844,0.07739258,-1.0271606,0.42767334,-4.90625,4.875,23.0625
1635452900883,0.27978516,-1.7241821,-0.045715332,3.109375,10.40625,-40.90625
1635452900920,-0.12695312,-0.6445923,-0.45318604,-55.453125,9.875,-0.5625
1635452900957,0.42138672,0.7892456,0.22357178,64.625,58.65625,51.015625
1635452900997,0.6594238,0.638855,-0.11114502,-15.59375,2.734375,-22.125
1635452901033,0.63916016,-0.0068969727,-0.16070557,-2.859375,-36.109375,-39.09375
1635452901069,1.999939,-2.0,0.2987671,134.40625,100.671875,-32.171875
1635452901106,-1.7197266,-1.0064087,1.263855,-9.15625,-47.046875,18.359375
1635452901145,0.30615234,-1.024231,0.14105225,47.0,-28.75,13.53125
1635452901204,0.5251465,-1.8406372,0.22943115,-40.65625,7.140625,24.0625
1635452901238,0.11694336,-1.232727,0.17767334,-23.828125,-20.234375,-0.5
1635452901276,-0.26123047,0.061950684,0.27581787,21.125,-1.390625,-18.765625
1635452901313,0.23217773,0.55682373,-0.26885986,20.34375,10.046875,1.1875
1635452901351,0.54956055,0.19110107,-0.14508057,-11.4375,-3.125,-4.546875
1635452901388,-0.38989258,-0.08917236,0.37420654,-40.953125,26.0,-23.859375
1635452901424,1.3186035,-2.0,-0.7774048,40.859375,44.109375,107.390625
1635452901463,-0.08886719,-0.67437744,0.82147217,-130.46875,-5.03125,-20.125
1635452901501,-1.451416,-1.7510376,-0.051330566,117.890625,-17.703125,-53.46875
1635452901540,0.11669922,-1.5293579,0.014343262,-13.265625,17.578125,60.359375
1635452901593,0.40576172,-1.2888794,0.116882324,-38.0,-5.796875,1.0625
1635452901632,0.27246094,-1.128479,-0.13360596,-16.859375,36.59375,-28.65625
1635452901668,0.08666992,0.08074951,-0.11236572,-17.5625,14.8125,21.234375
1635452901705,0.40454102,0.6437378,0.09246826,23.359375,31.75,19.484375
1635452901744,0.13745117,0.69696045,-0.04547119,-20.5625,11.03125,-32.390625
1635452901782,0.59399414,-0.8233032,0.13275146,21.515625,7.203125,-33.640625
1635452901819,-1.2929688,-2.0,0.92059326,-174.96875,61.09375,-28.59375
1635452901855,-0.8894043,-0.45513916,-0.039855957,40.734375,-35.5,-10.09375
1635452901894,0.10107422,-1.378479,0.36712646,37.140625,-26.984375,31.0
1635452901932,0.2758789,-1.5474243,0.2826538,-0.609375,-22.8125,7.546875
1635452901987,0.025878906,-0.6121216,0.022399902,8.203125,-12.640625,-18.65625
1635452902031,-0.12792969,0.45159912,-0.1104126,24.09375,2.234375,-15.6875
1635452902062,0.43017578,0.47479248,-0.18804932,17.953125,8.703125,1.0
1635452902101,0.19482422,0.086364746,-0.06402588,-28.78125,8.75,-13.953125
1635452902138,1.8552246,-1.3359985,-1.1038208,179.15625,-156.03125,42.453125
1635452902176,-0.58447266,-1.8403931,-0.57891846,-132.3125,-83.8125,-1.703125
1635452902216,-0.9638672,-0.7678833,0.30096436,52.8125,47.203125,-20.109375
1635452902250,-0.2763672,-1.5025024,0.18157959,37.359375,-4.59375,17.28125
1635452902288,0.16333008,-1.3738403,0.18695068,-28.53125,6.15625,26.625
1635452902325,0.2644043,-1.2063599,-0.24420166,-8.796875,15.875,-17.421875
1635452902381,0.1809082,-0.16192627,0.0048217773,-39.40625,27.984375,20.359375
1635452902420,0.39770508,0.7868042,0.034851074,47.203125,18.390625,27.5
1635452902457,0.1003418,0.6725464,0.008972168,-27.34375,-12.296875,-32.015625
1635452902513,0.46435547,-0.22125244,-0.3118286,-9.5,-18.625,-28.890625
1635452902532,1.251709,-2.0,1.6083374,-174.01562,58.65625,31.0625
1635452902569,-0.96655273,-0.5471802,0.049987793,-21.515625,-53.5,-36.40625
1635452902605,0.017089844,-1.0484009,0.44085693,58.046875,-29.3125,39.53125
1635452902644,-0.024414062,-1.5701294,0.8410034,-62.765625,-6.796875,35.296875
1635452902682,0.15991211,-1.117981,-0.1428833,53.59375,-31.515625,-31.03125
1635452902719,-0.19628906,0.46795654,0.047058105,25.859375,20.296875,-21.84375
1635452902756,0.30297852,0.40545654,-0.25250244,9.484375,0.671875,12.703125
1635452902813,0.53393555,0.17352295,-0.06304932,-27.671875,1.53125,-7.734375
1635452902853,0.36206055,-0.020812988,-0.7190552,58.46875,-12.890625,-6.296875
1635452902889,-0.74487305,-2.0,0.44403076,-145.8125,-2.75,14.59375
1635452902926,-1.2521973,-1.0186157,0.5258179,27.546875,78.890625,-20.046875
1635452902963,-0.29296875,-1.9226685,-0.2354126,91.515625,0.421875,9.171875
1635452903001,0.23828125,-1.2874146,0.4298706,-31.71875,22.484375,33.546875
1635452903038,0.14038086,-1.4763794,-0.01373291,-6.015625,1.828125,-20.046875
1635452903075,-0.25390625,-0.7324829,-0.190979,-37.265625,15.59375,-14.203125
1635452903113,0.14916992,0.55218506,-0.08502197,8.359375,30.421875,35.703125
1635452903150,0.73095703,0.43133545,0.109069824,5.453125,26.140625,-5.015625
1635452903244,0.33081055,0.38934326,-0.42730713,-21.0625,-0.21875,-33.6875
1635452903247,0.5715332,-1.2246704,0.45672607,16.890625,-3.953125,-46.984375
1635452903282,-1.4189453,-0.7276001,0.9215698,-110.5625,-0.875,-21.703125
1635452903338,-0.19335938,-0.46905518,-0.038879395,55.96875,-34.0625,6.25
1635452903357,0.21240234,-1.4993286,0.6376343,-11.609375,0.078125,38.34375
1635452903412,0.48291016,-1.6985474,0.0770874,2.890625,-49.46875,3.5625
1635452903431,-0.123535156,-0.50909424,0.18988037,9.0625,-0.9375,-21.40625
1635452903488,-0.22509766,0.50897217,0.06756592,28.484375,2.578125,-6.90625
1635452903506,0.44750977,0.46185303,-0.31402588,5.875,12.015625,-0.078125
1635452903544,0.25732422,-0.008361816,-0.10089111,-30.234375,5.71875,-10.640625
1635452903600,1.999939,-1.0874634,-1.5984497,208.32812,-145.84375,44.859375
1635452903637,-0.48950195,-2.0,-0.49346924,-113.953125,-90.03125,-12.71875
1635452903675,-0.94555664,-0.9973755,0.40252686,44.734375,48.28125,-33.375
1635452903713,-0.41357422,-1.8233032,0.27801514,39.609375,11.5625,29.140625
1635452903750,0.20141602,-1.0698853,0.16082764,-14.140625,-0.953125,26.6875
1635452903788,0.28100586,-1.1348267,-0.14996338,10.328125,8.109375,-14.09375
1635452903825,0.119628906,-0.4890747,-0.23516846,-42.578125,-1.390625,4.28125
1635452903862,0.421875,0.5036011,0.10687256,27.578125,34.578125,24.859375
1635452903901,0.103271484,0.61883545,0.039245605,-3.0,12.40625,-25.328125
1635452903939,0.39990234,0.21136475,-0.72003174,15.390625,-13.546875,-29.046875
1635452903976,1.999939,-2.0,1.048523,108.375,54.953125,80.875
1635452904032,-0.9782715,-0.87164307,0.33148193,-12.8125,-50.90625,-24.09375
1635452904069,0.13183594,-0.7359009,0.078308105,45.109375,-26.09375,7.953125
1635452904107,0.16259766,-1.671936,0.88153076,-37.09375,18.0625,43.359375
1635452904144,0.57836914,-1.7056274,0.29559326,6.34375,-37.1875,-11.796875
1635452904181,-0.22338867,-0.16680908,0.090026855,18.46875,-1.078125,-27.96875
1635452904219,-0.08178711,0.69329834,-0.19073486,1.46875,12.90625,1.328125
1635452904257,0.7451172,0.32537842,-0.1795044,-13.109375,-3.734375,-8.109375
1635452904294,0.33911133,-0.07086182,0.043395996,-10.96875,6.03125,-7.921875
1635452904331,0.11328125,-2.0,0.043151855,-135.5,73.8125,-0.109375
1635452904369,-0.79663086,-0.6843872,1.2106323,-64.125,51.34375,-20.328125
1635452904425,-0.5588379,-1.6392212,-0.03668213,102.03125,-25.375,-17.71875
1635452904462,0.08691406,-1.4070435,0.18939209,-24.734375,21.734375,35.578125
1635452904500,-0.025146484,-1.2869263,0.053894043,-4.046875,-1.796875,0.484375
1635452904538,0.04736328,-0.850647,-0.10601807,-13.078125,22.265625,-12.0
1635452904575,0.2541504,0.24212646,-0.11065674,-16.703125,10.390625,25.84375
1635452904613,0.5830078,0.5643921,0.01361084,7.296875,22.125,6.921875
1635452904651,0.4333496,0.36688232,-0.8086548,-18.1875,-11.703125,-30.375
1635452904690,1.0390625,-1.1101685,0.89764404,41.65625,-3.203125,-77.515625
1635452904725,-1.7956543,-0.90631104,0.69989014,-120.640625,3.40625,-35.328125
1635452904782,-0.57836914,-0.7102661,0.1437378,59.109375,-31.03125,22.859375
1635452904819,0.5683594,-1.5054321,0.6937866,-18.5,22.46875,48.09375
1635452904857,0.5385742,-1.6504517,0.479187,5.15625,-68.1875,2.421875
1635452904895,-0.22509766,-0.3711548,0.061950684,25.6875,-20.375,-12.953125
1635452904932,-0.39794922,0.64105225,-0.019836426,46.125,-7.765625,-1.8125
1635452904972,0.38134766,0.4743042,-0.26348877,-6.6875,24.0625,3.625
1635452905009,0.34399414,-0.12042236,0.1071167,-26.328125,21.703125,-10.328125
1635452905043,1.4758301,-0.86920166,-1.1577759,126.375,-112.421875,18.671875
1635452905081,-0.85180664,-1.6299438,-0.31256104,-150.98438,-50.359375,-31.90625
1635452905119,-1.173584,-0.7451782,0.31610107,46.859375,55.875,-12.59375
1635452905156,-0.3725586,-1.3684692,0.22137451,54.890625,4.796875,29.53125
1635452905195,0.33618164,-1.302063,0.27947998,-12.828125,0.484375,30.34375
1635452905250,0.21459961,-1.3777466,-0.16192627,4.953125,12.296875,-30.5
1635452905289,-0.11425781,-0.53912354,-0.2835083,-47.15625,18.234375,-1.671875
1635452905325,0.2878418,0.5934448,0.11029053,36.3125,30.734375,29.46875
1635452905383,0.36645508,0.6300659,0.12371826,-12.796875,12.546875,-17.65625
1635452905400,0.76953125,-0.22515869,-0.0491333,-12.203125,-41.078125,-28.390625
1635452905438,1.999939,-2.0,-0.29473877,-106.34375,50.625,4.140625
1635452905475,-1.5605469,-0.84503174,0.14276123,-9.203125,-78.625,-23.640625
1635452905513,-0.12548828,-0.75201416,0.43719482,41.484375,-20.375,21.15625
1635452905551,0.2980957,-1.5230103,0.43670654,-13.421875,-9.828125,48.25
1635452905588,0.44995117,-1.3233032,0.1486206,6.671875,-22.203125,-13.296875
1635452905644,-0.2709961,-0.03692627,-0.16607666,23.71875,-0.59375,-4.5625
1635452905681,0.09057617,0.59368896,-0.04058838,21.90625,29.078125,-1.734375
1635452905719,0.3413086,0.2921753,-0.06842041,-24.46875,7.421875,-20.28125
1635452905757,0.3786621,-0.2420044,-0.47174072,12.9375,-18.75,-4.125
1635452905795,-0.18579102,-2.0,1.1310425,-116.359375,77.03125,24.71875
1635452905831,-1.0778809,-0.8262329,0.81048584,-14.515625,52.140625,-21.78125
1635452905870,-0.20605469,-1.2442017,0.07733154,79.890625,12.0625,6.40625
1635452905907,0.19750977,-1.3919067,0.36419678,-26.3125,7.875,27.59375
1635452905943,-0.107666016,-1.2356567,-0.16973877,23.84375,-24.421875,-3.171875
1635452905981,0.011230469,-0.7334595,-0.3657837,-18.265625,13.6875,-1.125
1635452906038,0.46264648,0.20233154,0.120788574,1.328125,26.515625,17.390625
1635452906075,0.2541504,0.52752686,0.082458496,17.28125,28.96875,-13.890625
1635452906114,0.18041992,0.4393921,-0.27789307,-19.015625,-10.21875,-31.9375
1635452906150,0.88964844,-0.97442627,0.58880615,10.34375,-9.375,-48.65625
1635452906187,-1.4606934,-1.4973755,0.6227417,-70.15625,27.6875,-46.625
1635452906224,-0.3334961,-0.9067993,-0.25787354,36.875,-67.90625,-14.609375
1635452906262,0.24365234,-1.3643188,0.9645386,-9.8125,6.109375,57.890625
1635452906299,0.31689453,-1.4580688,0.3060913,23.609375,-74.515625,24.5625
1635452906337,0.072509766,-0.739563,-0.12652588,3.671875,3.109375,-19.34375
1635452906374,-0.16210938,0.48138428,0.121276855,28.359375,1.140625,-4.53125
1635452906412,0.34936523,0.35736084,-0.18634033,18.84375,-4.8125,-5.984375
1635452906469,0.106933594,0.01361084,-0.0725708,-42.875,10.296875,-16.296875
1635452906507,0.9020996,-0.39239502,-1.2219849,70.921875,-52.53125,1.546875
1635452906545,-0.5866699,-2.0,-0.35943604,-165.59375,-14.625,-11.40625
1635452906582,-0.9628906,-0.96661377,0.3463745,46.34375,53.0,-23.421875
1635452906619,-0.39794922,-1.2495728,0.20892334,56.65625,-7.578125,17.515625
1635452906657,0.11987305,-1.2366333,0.6383667,-16.546875,16.78125,28.359375
1635452906694,0.22460938,-1.366272,-0.101379395,9.375,-16.578125,-13.234375
1635452906732,0.076416016,-0.8508911,-0.31622314,-36.765625,3.546875,-7.046875
1635452906769,0.31713867,0.20281982,0.13153076,6.921875,14.578125,27.53125
1635452906807,0.28637695,0.5829468,0.07757568,22.296875,13.59375,-9.90625
1635452906862,0.38427734,0.44378662,-0.52349854,-9.546875,-14.421875,-30.890625
1635452906900,1.1384277,-1.1057739,0.8348999,14.78125,-18.703125,-61.84375
1635452906938,-1.8291016,-1.4885864,0.48968506,-137.29688,38.71875,-46.90625
1635452906976,-0.111816406,-0.9143677,0.05218506,60.84375,-51.875,-0.09375
1635452907013,0.2355957,-1.2324829,0.8649292,-37.515625,24.265625,34.34375
1635452907050,0.47216797,-1.6416626,0.3065796,18.484375,-58.203125,17.296875
1635452907087,-0.1394043,-0.7085571,-0.1428833,-24.953125,0.8125,-18.921875
1635452907126,-0.23291016,0.63812256,0.10223389,42.34375,9.40625,-6.578125
1635452907162,0.25390625,0.3505249,-0.27886963,3.484375,25.140625,-10.421875
1635452907200,0.31713867,-0.046447754,0.061462402,-26.140625,16.59375,-14.5
1635452907295,1.8920898,-0.5623169,-1.6397095,127.859375,-85.5,21.65625
1635452907298,-0.4321289,-2.0,-0.46270752,-79.875,-52.03125,-0.0625
1635452907332,-0.85375977,-0.9885864,0.18890381,45.234375,49.65625,-26.484375
1635452907369,-0.15942383,-1.8025513,0.26605225,58.4375,18.28125,21.90625
1635452907406,0.19238281,-1.539856,0.26654053,-20.765625,-4.109375,20.75
1635452907444,-0.080322266,-1.1401978,-0.15631104,2.640625,7.0,-16.796875
1635452907481,-0.1081543,-0.4788208,-0.11993408,-27.4375,1.09375,1.140625
1635452907519,0.24194336,0.3619995,-0.030822754,15.375,34.4375,34.125
1635452907557,0.61083984,0.36883545,0.08782959,-4.25,8.640625,-6.875
1635452907596,0.20141602,0.32391357,0.18011475,-27.421875,3.421875,-40.6875
1635452907651,0.4494629,-0.94000244,0.33270264,18.5625,-18.546875,-46.5625
1635452907687,-1.112793,-2.0,0.7267456,-112.5625,10.90625,-29.703125
1635452907725,-0.545166,-0.65631104,-0.41607666,33.578125,-49.6875,-19.828125
1635452907763,-0.05078125,-1.3496704,0.8590698,19.515625,-9.515625,44.5625
1635452907801,0.25634766,-2.0,0.113220215,22.34375,-69.5625,34.78125
1635452907838,0.12060547,-0.8858032,0.08294678,-13.96875,11.015625,-24.40625
1635452907876,-0.15185547,0.37469482,0.2584839,18.609375,-13.109375,-3.484375
1635452907912,0.1237793,0.6144409,-0.2288208,40.203125,-5.375,6.15625
1635452907951,0.37597656,0.09124756,-0.18682861,-10.421875,-2.984375,-7.875
1635452907987,0.2878418,-0.37579346,-0.53253174,15.0,-15.0,-5.484375
1635452908026,0.7492676,-2.0,0.23480225,-149.04688,74.59375,-15.609375
1635452908082,-0.91918945,-0.5393677,1.2457886,-29.65625,40.9375,-32.125
1635452908119,-0.88183594,-1.4544067,-0.033996582,72.375,-19.828125,1.453125
1635452908156,0.07739258,-1.6299438,0.2567749,2.875,7.796875,37.453125
1635452908197,0.28076172,-1.1734009,0.07098389,-0.0625,-15.84375,-4.1875
1635452908231,-0.060302734,-0.89678955,-0.11407471,-13.921875,2.734375,-10.546875
1635452908269,0.013671875,-0.057434082,-0.20513916,-8.453125,-1.78125,19.3125
1635452908307,0.41723633,0.48309326,0.117614746,19.90625,20.984375,18.578125
1635452908344,0.2553711,0.4537964,0.17279053,-6.59375,6.546875,-27.515625
1635452908382,0.5456543,-0.3477173,-0.32403564,7.125,-30.609375,-23.6875
1635452908420,0.8227539,-2.0,0.5192261,-172.40625,75.78125,-10.71875
1635452908474,-0.88842773,-0.75372314,-0.3118286,-24.046875,-54.078125,-33.640625
1635452908512,-0.064208984,-0.8521118,0.38494873,32.109375,2.796875,23.640625
1635452908550,0.0390625,-1.4622192,0.6588745,-41.59375,19.296875,35.671875
1635452908588,0.30297852,-1.3643188,0.5206909,-7.875,10.671875,-20.625
1635452908625,-0.05810547,-0.2625122,0.5084839,4.078125,-1.015625,-42.328125
1635452908662,-0.20898438,0.72772217,-0.22613525,78.109375,-0.40625,-18.65625
1635452908700,0.4362793,-0.27374268,-0.1375122,-41.25,48.25,-8.53125
1635452908738,0.22998047,-0.5877075,0.28753662,-4.125,18.609375,-20.734375
1635452908775,-0.095214844,-0.44976807,-0.88946533,44.515625,4.40625,5.359375
1635452908813,1.999939,-2.0,-2.0,63.28125,-118.5,203.04688
1635452908869,0.5480957,-2.0,0.20574951,56.375,-171.85938,-74.046875
1635452908907,-0.96655273,-1.3582153,-0.026428223,32.390625,62.328125,-5.03125
1635452908944,-0.18139648,-0.86968994,-0.41534424,22.921875,-5.359375,65.203125
1635452908981,0.7607422,-0.6760864,0.34832764,33.96875,28.3125,6.8125
1635452909020,0.529541,-1.7022095,-0.012268066,-26.0625,1.5,-8.6875
1635452909056,0.036621094,-1.0557251,0.054626465,2.921875,-25.234375,-13.1875
1635452909094,-0.26049805,-0.34576416,0.19085693,-31.265625,-6.625,-19.234375
1635452909131,-0.41088867,0.18939209,0.036071777,28.234375,-15.953125,-4.09375
1635452909169,0.12939453,-0.11846924,0.054138184,0.3125,-12.234375,-10.96875
1635452909206,0.41870117,-0.55963135,-0.040100098,-17.4375,-14.25,-31.828125
1635452909246,0.33789062,-1.156311,-0.101379395,1.703125,21.515625,-49.953125
1635452909301,0.041259766,-2.0,0.14886475,-18.125,-2.015625,-5.3125
1635452909338,-0.07373047,-0.9468384,-0.13287354,7.546875,-5.265625,10.421875
1635452909376,0.27978516,-0.8513794,0.06829834,16.546875,13.734375,-1.4375
1635452909413,0.17700195,-1.0979614,0.37713623,-17.421875,5.15625,8.234375
1635452909451,0.007080078,-1.3052368,-0.17510986,16.640625,6.65625,-8.65625
1635452909489,0.09350586,-1.0569458,0.061950684,18.421875,-1.640625,10.59375
1635452909524,0.30419922,-0.7871704,0.18695068,-6.640625,2.828125,16.90625
1635452909563,0.19750977,-0.90216064,0.11175537,0.421875,-8.734375,-1.4375
1635452909600,-0.044189453,-0.98394775,0.07220459,0.484375,-4.625,-0.484375
1635452909639,-0.017822266,-0.96343994,0.049743652,4.9375,0.84375,10.296875
1635452909694,0.16040039,-1.017395,0.1449585,-0.65625,6.65625,2.453125
1635452909731,0.17407227,-0.9260864,0.12322998,-3.1875,1.5,-2.25
1635452909769,0.015380859,-0.79278564,0.116882324,5.859375,1.125,0.515625
1635452909806,-0.0078125,-0.9002075,0.10223389,4.671875,5.75,-0.71875
1635452909844,0.11206055,-0.94732666,0.16351318,5.65625,6.125,1.375
1635452909882,0.2253418,-1.1436157,0.046569824,12.90625,3.03125,-1.078125
1635452909919,0.12573242,-1.3074341,0.08856201,-0.125,2.5625,-6.734375
1635452909957,-0.011962891,-0.98809814,0.05706787,1.140625,-1.421875,1.828125
1635452909994,-0.041259766,-0.7461548,-0.13043213,12.109375,-1.0625,3.75
1635452910039,0.072509766,-0.9890747,0.12371826,-1.8125,1.625,-1.1875
1635452910087,0.10107422,-1.0952759,0.050720215,10.796875,-7.34375,4.25
1635452910125,9.765625E-4,-0.9248657,-0.13433838,6.0,-1.5625,2.96875
1635452910162,0.035888672,-0.92022705,0.027526855,-0.34375,-0.9375,-0.59375
1635452910201,0.0024414062,-0.9859009,0.03363037,1.796875,-0.953125,2.984375
1635452910237,-0.046875,-1.1699829,-0.032043457,4.28125,6.671875,-5.09375
1635452910277,0.06689453,-1.1817017,0.117370605,-2.609375,9.734375,-5.40625
1635452910312,0.03491211,-0.98883057,0.13128662,-0.796875,2.5625,0.25
