# Sensor type: Respeck
# Activity type: Climbing stairs
# Activity code: 12
# Subject id: s2251802
# Notes: 
timestamp,accel_x,accel_y,accel_z,gyro_x,gyro_y,gyro_z
1635457487768,0.12597656,-0.99053955,0.11004639,0.65625,3.140625,-1.609375
1635457487806,0.1262207,-0.97784424,0.09490967,-0.21875,1.609375,-1.328125
1635457487844,0.10180664,-1.0186157,0.11077881,0.6875,1.3125,-0.15625
1635457487881,0.11230469,-0.9846802,0.10882568,1.734375,0.671875,0.296875
1635457487918,0.111328125,-0.9854126,0.105651855,1.125,2.0625,-0.890625
1635457487975,0.08325195,-1.0056763,0.11981201,2.0625,0.671875,0.046875
1635457487995,0.087402344,-0.9834595,0.121520996,1.46875,1.671875,0.0625
1635457488088,0.06518555,-0.9885864,0.11810303,2.484375,3.0625,-0.46875
1635457488091,0.07446289,-0.9846802,0.1149292,4.609375,2.8125,0.15625
1635457488126,0.08203125,-1.0071411,0.089538574,5.75,3.171875,0.09375
1635457488163,0.07080078,-1.0022583,0.09490967,4.765625,3.46875,1.09375
1635457488200,0.056640625,-1.0007935,0.08831787,8.5,4.078125,1.625
1635457488240,0.099853516,-0.9993286,0.0602417,5.4375,6.078125,2.21875
1635457488277,0.16015625,-0.99420166,0.048034668,10.078125,5.0625,2.421875
1635457488312,0.2290039,-0.9126587,0.030944824,10.21875,2.6875,6.328125
1635457488350,0.17358398,-0.9282837,0.026062012,10.390625,0.4375,3.9375
1635457488388,0.1772461,-1.0239868,-0.0037231445,24.0625,-7.53125,7.21875
1635457488444,0.33789062,-0.972229,0.010925293,24.171875,-10.765625,16.6875
1635457488481,0.26757812,-0.83013916,0.05682373,6.140625,-19.84375,12.9375
1635457488519,0.15405273,-1.1213989,0.16107178,15.796875,-13.25,6.484375
1635457488556,0.11743164,-1.2564087,0.14154053,17.328125,-9.0,11.40625
1635457488594,0.23046875,-0.9180298,0.013122559,21.359375,-7.3125,14.859375
1635457488631,0.34448242,-0.8755493,0.030456543,19.4375,-1.453125,13.28125
1635457488669,0.26464844,-0.9282837,-0.0015258789,3.90625,-9.234375,11.859375
1635457488705,0.096191406,-0.9468384,0.04046631,12.6875,-0.375,8.53125
1635457488745,0.25390625,-0.9307251,0.04144287,14.625,4.890625,8.578125
1635457488781,0.3383789,-0.90802,0.050720215,8.015625,7.234375,5.140625
1635457488820,0.2553711,-0.9993286,0.06390381,4.546875,2.15625,-1.609375
1635457488875,0.18383789,-0.987854,0.070007324,11.203125,3.546875,-1.9375
1635457488913,0.40014648,-0.9480591,-0.101379395,33.5625,-0.40625,4.734375
1635457488950,0.50805664,-1.2341919,-0.26397705,25.96875,-7.421875,16.25
1635457488988,0.52075195,-1.166565,-0.32037354,13.40625,-2.453125,3.953125
1635457489025,0.4699707,-1.1177368,-0.34039307,2.78125,13.421875,-5.5625
1635457489066,0.43725586,-1.0217896,-0.36627197,13.375,4.265625,-0.1875
1635457489119,0.35131836,-0.9690552,-0.45196533,3.453125,8.796875,-5.5625
1635457489141,0.40576172,-0.93096924,-0.3850708,-2.203125,9.34375,-13.40625
1635457489194,0.32470703,-0.8545532,-0.32525635,-6.015625,7.53125,-7.34375
1635457489213,0.27929688,-0.92022705,-0.29205322,-5.4375,0.15625,-9.59375
1635457489269,0.20825195,-0.89678955,-0.25054932,-11.375,5.71875,-9.34375
1635457489306,0.13769531,-0.78863525,-0.21368408,-11.625,11.328125,-8.046875
1635457489345,0.16552734,-0.7678833,-0.1873169,-7.265625,15.0,-5.25
1635457489381,0.21044922,-0.69537354,-0.15240479,-6.375,9.765625,-1.765625
1635457489419,0.15991211,-0.6904907,-0.15435791,-0.359375,9.765625,-1.375
1635457489457,0.18017578,-0.7954712,-0.17437744,6.359375,3.25,1.703125
1635457489494,0.22998047,-0.7581177,-0.13287354,2.140625,-2.75,3.390625
1635457489531,0.1538086,-0.90802,-0.10015869,2.15625,-4.96875,5.046875
1635457489569,0.0859375,-1.1870728,-0.11798096,3.890625,-8.546875,1.0
1635457489607,0.26708984,-1.3460083,-0.035461426,-7.375,1.640625,-1.03125
1635457489665,0.22387695,-1.2105103,-0.10211182,-25.25,-0.859375,-1.875
1635457489699,0.4584961,-1.3069458,-0.2642212,-14.609375,0.296875,3.671875
1635457489737,0.6816406,-1.367981,-0.18878174,-23.96875,-27.453125,-1.15625
1635457489775,0.27661133,-0.7432251,-0.13848877,-20.578125,1.375,-1.96875
1635457489814,0.40112305,-1.0308228,-0.23614502,3.171875,-17.6875,12.9375
1635457489850,0.42529297,-0.94976807,0.0602417,-8.59375,-10.546875,-0.515625
1635457489887,0.15161133,-0.78497314,0.0072631836,3.015625,4.15625,3.859375
1635457489925,0.14282227,-0.6331177,-0.082092285,8.578125,-3.15625,9.5
1635457489965,0.35839844,-0.5679321,4.272461E-4,9.0625,-1.25,8.78125
1635457490000,0.28320312,-0.6489868,0.024108887,1.40625,-5.859375,9.890625
1635457490038,0.14526367,-0.71051025,0.010437012,8.234375,-6.125,5.8125
1635457490094,0.28881836,-0.8081665,0.0036010742,11.203125,-6.21875,7.875
1635457490151,0.43066406,-0.99346924,0.11541748,8.0625,-3.59375,-1.140625
1635457490169,0.33544922,-1.1939087,0.097839355,0.921875,-10.328125,-6.265625
1635457490206,0.26733398,-1.0488892,0.08343506,5.109375,-9.625,-14.03125
1635457490244,0.39892578,-0.9968872,-0.012268066,7.546875,-7.125,-12.65625
1635457490319,0.42407227,-1.4732056,-0.23736572,4.40625,-3.046875,-8.46875
1635457490323,0.32617188,-1.2002563,-0.17486572,-5.34375,15.734375,-29.46875
1635457490358,0.28857422,-0.8711548,-0.2703247,3.4375,22.8125,-9.28125
1635457490393,0.41235352,-0.98443604,-0.3665161,5.546875,14.609375,-7.5625
1635457490432,0.35498047,-1.0293579,-0.22125244,-7.734375,5.140625,-14.40625
1635457490488,0.2019043,-0.8909302,-0.078186035,6.328125,-0.359375,-5.515625
1635457490544,0.11035156,-0.704895,-0.10211182,-1.09375,-0.59375,-4.109375
1635457490563,0.03149414,-0.55963135,-0.14434814,8.625,8.890625,-1.03125
1635457490601,0.13745117,-0.59332275,-0.077697754,9.78125,9.296875,-1.109375
1635457490638,0.110839844,-0.68463135,0.00970459,7.5625,5.71875,-1.3125
1635457490678,0.07006836,-0.8128052,-0.022521973,10.4375,3.421875,2.390625
1635457490713,0.13256836,-1.1096802,-0.025939941,12.96875,4.3125,1.234375
1635457490751,0.16308594,-1.4795532,0.07733154,-15.09375,3.0,-6.25
1635457490788,0.17358398,-1.468811,0.098083496,-16.421875,1.234375,-1.015625
1635457490826,0.21899414,-1.3413696,-0.22174072,-37.71875,5.015625,-2.59375
1635457490920,0.45410156,-1.3604126,0.10076904,-15.59375,-0.328125,2.59375
1635457490924,0.5109863,-0.85113525,-0.20806885,-24.890625,-16.09375,7.5625
1635457490957,0.2939453,-1.128479,-0.19342041,2.328125,1.15625,12.109375
1635457490993,0.22607422,-0.9717407,0.12322998,-8.9375,-4.296875,10.71875
1635457491031,0.091308594,-0.8245239,0.0072631836,11.84375,12.46875,9.21875
1635457491069,0.24975586,-0.7022095,0.04168701,14.265625,6.40625,14.546875
1635457491107,0.32250977,-0.56695557,-7.9345703E-4,9.90625,4.015625,17.046875
1635457491143,0.21411133,-0.631897,-0.024475098,7.953125,5.90625,14.390625
1635457491181,0.21362305,-0.5918579,0.05267334,13.765625,4.28125,13.484375
1635457491218,0.21044922,-0.7300415,4.272461E-4,9.421875,-1.203125,8.59375
1635457491255,0.32788086,-0.9209595,0.06561279,7.03125,1.140625,8.296875
1635457491312,0.31225586,-1.2249146,0.168396,-0.703125,0.453125,-4.65625
1635457491369,0.3359375,-1.3945923,0.036071777,13.546875,-7.59375,-9.546875
1635457491388,0.3762207,-1.1060181,-0.022033691,4.625,-2.890625,-11.953125
1635457491425,0.5114746,-1.5007935,-0.26031494,20.359375,2.609375,-6.171875
1635457491481,0.37475586,-0.8909302,-0.13067627,7.09375,14.625,-17.875
1635457491502,0.37475586,-0.81622314,-0.45318604,11.46875,21.828125,-1.796875
1635457491537,0.5444336,-0.92315674,-0.29595947,8.4375,10.3125,-8.03125
1635457491574,0.2709961,-0.9483032,-0.18487549,-9.28125,8.421875,-12.0625
1635457491612,0.140625,-0.7683716,-0.08428955,2.5,1.734375,-4.828125
1635457491669,0.10595703,-0.62823486,-0.10333252,-1.625,6.6875,-4.875
1635457491705,0.053222656,-0.67852783,-0.13775635,11.046875,14.90625,-0.96875
1635457491743,0.18652344,-0.70318604,-0.12188721,12.4375,5.5,1.90625
1635457491781,0.20507812,-0.70391846,-0.10235596,6.90625,-4.078125,1.671875
1635457491819,0.13671875,-0.91607666,-0.082336426,6.3125,-9.40625,2.40625
1635457491856,0.099609375,-1.2407837,-0.0064086914,5.140625,-5.890625,-1.234375
1635457491893,0.16479492,-1.4107056,0.026062012,-12.703125,-1.359375,-3.734375
1635457491932,0.31347656,-1.2471313,-0.144104,-17.0625,-3.390625,1.734375
1635457491969,0.46166992,-1.3496704,-0.15582275,-40.234375,-12.453125,-2.078125
1635457492006,0.52905273,-1.06427,-0.13946533,-14.171875,-3.78125,2.84375
1635457492045,0.41723633,-1.0671997,-0.19976807,-1.8125,-5.234375,7.109375
1635457492100,0.48339844,-0.9727173,-0.051574707,-9.90625,-10.75,6.578125
1635457492138,0.18286133,-0.90631104,0.03729248,-1.3125,1.359375,4.203125
1635457492175,0.1875,-0.76934814,0.036071777,4.96875,10.375,10.484375
1635457492213,0.22631836,-0.5864868,6.713867E-4,10.046875,3.28125,10.046875
1635457492251,0.23388672,-0.5828247,-0.045715332,12.171875,8.765625,13.484375
1635457492287,0.33276367,-0.59698486,-0.06915283,16.96875,2.3125,12.921875
1635457492325,0.40576172,-0.74102783,-0.070129395,6.578125,-2.921875,19.40625
1635457492363,0.40966797,-0.99713135,0.022399902,0.21875,-20.796875,10.6875
1635457492401,0.103271484,-1.0674438,0.20697021,2.765625,1.71875,4.265625
1635457492438,0.22167969,-1.2288208,-0.023742676,7.484375,-1.171875,-5.59375
1635457492494,0.5708008,-1.1243286,0.07147217,13.71875,7.828125,-19.875
1635457492531,0.62353516,-1.4707642,-0.17877197,17.203125,6.5,-13.46875
1635457492569,0.4621582,-0.9990845,-0.30474854,8.140625,6.953125,-15.859375
1635457492607,0.38354492,-0.70562744,-0.3555298,-1.09375,28.390625,-10.8125
1635457492644,0.42651367,-0.9065552,-0.24249268,7.375,21.203125,-11.640625
1635457492681,0.2993164,-0.88775635,-0.21734619,-4.359375,13.0625,-7.78125
1635457492718,0.23266602,-0.61138916,-0.1194458,-1.078125,11.5,-6.71875
1635457492756,0.18823242,-0.5737915,-0.0725708,-2.484375,0.375,-8.859375
1635457492794,-0.016357422,-0.57598877,-0.070617676,4.484375,9.78125,-2.03125
1635457492832,0.10058594,-0.7337036,-0.1272583,11.921875,6.75,0.875
1635457492869,0.21166992,-0.8257446,-0.08868408,11.625,-3.21875,3.765625
1635457492925,0.122802734,-1.0752563,-0.02520752,4.234375,-1.34375,4.703125
1635457492962,0.2133789,-1.4116821,-0.046691895,9.828125,-2.03125,2.59375
1635457493000,0.37963867,-1.3428345,-0.020324707,-11.90625,0.5,2.40625
1635457493040,0.38330078,-1.18927,-0.16900635,-29.40625,-8.46875,-1.890625
1635457493077,0.4428711,-1.3196411,-0.24298096,-23.96875,-12.953125,4.828125
1635457493112,0.4753418,-0.9558716,-0.105773926,-9.1875,-0.1875,-0.21875
1635457493150,0.49316406,-1.0108032,-0.3032837,-2.359375,-4.234375,9.15625
1635457493188,0.40820312,-0.9680786,0.003112793,-3.234375,-8.40625,8.65625
1635457493225,0.14868164,-0.9024048,0.026550293,-6.9375,3.96875,5.484375
1635457493263,0.17871094,-0.67437744,-0.012023926,6.046875,10.171875,6.5
1635457493357,0.3791504,-0.5835571,-0.06793213,11.125,3.390625,10.078125
1635457493360,0.37158203,-0.6067505,0.0028686523,1.875,0.609375,12.484375
1635457493394,0.16845703,-0.63897705,-0.0115356445,3.296875,-1.03125,5.59375
1635457493431,0.25390625,-0.7529907,0.005554199,7.90625,1.421875,5.28125
1635457493469,0.38867188,-0.91534424,0.074401855,3.140625,-0.28125,1.640625
1635457493506,0.32250977,-1.0969849,0.034606934,0.265625,-1.265625,-4.453125
1635457493544,0.2709961,-1.2341919,0.047302246,0.671875,4.875,-10.140625
1635457493581,0.41577148,-1.0447388,0.04925537,1.1875,1.28125,-11.625
1635457493619,0.58862305,-1.4060669,-0.17388916,18.015625,4.859375,-9.390625
1635457493656,0.36694336,-1.2244263,-0.16680908,7.40625,4.046875,-16.53125
1635457493712,0.4020996,-0.74542236,-0.21270752,-4.6875,14.484375,-14.59375
1635457493750,0.43164062,-0.8274536,-0.3098755,-2.53125,15.6875,-10.625
1635457493787,0.24243164,-1.0664673,-0.1819458,-2.5625,3.265625,-14.453125
1635457493825,0.25463867,-0.8718872,-0.12628174,-6.4375,1.828125,-6.5
1635457493862,0.19067383,-0.64556885,-0.04083252,-2.46875,1.9375,-3.828125
1635457493900,0.05444336,-0.7246704,-0.09185791,-3.90625,8.09375,-9.265625
1635457493937,0.078125,-0.71417236,-0.04937744,2.921875,8.546875,-3.8125
1635457493975,0.15942383,-0.7246704,-0.04522705,6.375,7.40625,-2.890625
1635457494012,0.1015625,-0.8291626,-0.034240723,6.734375,4.828125,-2.0
1635457494050,0.10620117,-0.9475708,-0.004211426,8.40625,4.890625,1.09375
1635457494088,0.10498047,-1.0515747,-0.017150879,8.4375,5.890625,-0.71875
1635457494144,0.1394043,-1.0708618,-0.0064086914,1.5,7.265625,-0.375
1635457494181,0.22338867,-1.1970825,0.025817871,-10.78125,3.40625,-5.578125
1635457494219,0.2746582,-1.1685181,-0.1296997,-10.859375,1.546875,0.09375
1635457494256,0.42749023,-1.4663696,0.009460449,-23.875,-0.9375,-3.796875
1635457494293,0.2722168,-1.2561646,-0.28741455,-13.6875,-8.390625,7.171875
1635457494331,0.26831055,-0.9404907,-0.08282471,-9.078125,5.984375,4.15625
1635457494371,0.4428711,-1.2542114,-0.16656494,-6.421875,-0.0625,10.5
1635457494406,0.1730957,-0.958313,6.713867E-4,-12.296875,12.8125,3.109375
1635457494444,0.114990234,-0.8423462,0.011657715,-9.84375,13.640625,5.9375
1635457494482,0.25512695,-0.69537354,0.050720215,-7.5625,9.828125,4.328125
1635457494537,0.16845703,-0.66241455,0.05340576,-5.1875,8.0,5.484375
1635457494575,0.26220703,-0.7070923,0.050231934,6.203125,-2.21875,10.890625
1635457494613,0.37475586,-0.78497314,-0.008361816,-2.328125,-10.109375,6.46875
1635457494650,0.2697754,-0.80181885,0.034851074,-4.75,-6.0,-0.359375
1635457494687,0.2602539,-0.8826294,0.059753418,1.8125,-1.140625,0.828125
1635457494726,0.29956055,-0.8167114,0.09661865,7.671875,-1.96875,1.109375
1635457494761,0.37670898,-0.862854,0.1005249,-1.765625,0.84375,-6.265625
1635457494799,0.27270508,-0.84210205,0.13275146,-3.578125,2.109375,-11.578125
