# Sensor type: Respeck
# Activity type: Climbing stairs
# Activity code: 12
# Subject id: s2056220
# Notes: 
timestamp,accel_x,accel_y,accel_z,gyro_x,gyro_y,gyro_z
1635452611437,-0.32788086,0.746521,-0.117248535,-21.625,-5.75,-16.171875
1635452611476,-0.43725586,0.92181396,-0.13018799,-15.40625,-4.46875,2.828125
1635452611513,-0.564209,0.89642334,-0.061584473,12.71875,6.5625,11.234375
1635452611569,-0.58691406,0.88812256,-0.031799316,9.0,2.515625,1.59375
1635452611607,-0.5317383,0.91815186,-0.109436035,-5.875,-2.0625,-6.28125
1635452611644,-0.54003906,0.8344116,-0.08404541,-2.578125,4.78125,-3.0
1635452611681,-0.5305176,0.7670288,-0.061828613,6.921875,11.375,4.203125
1635452611719,-0.55981445,0.8180542,-0.08306885,9.359375,10.671875,5.5625
1635452611756,-0.5288086,0.87323,-0.11090088,-2.28125,9.109375,2.0
1635452611794,-0.484375,0.82562256,-0.12750244,1.421875,10.125,3.828125
1635452611831,-0.41235352,0.8065796,-0.059387207,7.796875,8.640625,7.359375
1635452611868,-0.36669922,0.8800659,-0.026184082,-1.453125,-3.796875,5.84375
1635452611905,-0.48364258,1.1071167,-0.032287598,-3.25,-3.171875,10.796875
1635452611944,-0.5551758,1.2064819,-0.07086182,4.0625,9.21875,-2.953125
1635452612001,-0.4050293,0.9447632,-0.03302002,10.34375,1.65625,-16.765625
1635452612037,-0.30493164,0.7367554,-7.9345703E-4,6.015625,-3.390625,-14.203125
1635452612075,-0.3330078,0.6688843,-0.016906738,-4.84375,-2.34375,1.921875
1635452612114,-0.44555664,0.79681396,-0.033996582,-9.5,2.015625,12.828125
1635452612150,-0.50439453,0.8551636,-0.0803833,3.953125,8.03125,7.0
1635452612190,-0.4025879,0.74212646,-0.08306885,8.96875,9.03125,-5.6875
1635452612225,-0.31030273,0.61712646,-0.04864502,4.96875,4.046875,-8.9375
1635452612263,-0.34179688,0.7494507,0.08026123,11.84375,0.046875,4.90625
1635452612300,-0.25317383,0.9069214,-0.04449463,-0.6875,2.234375,8.453125
1635452612338,-0.29467773,0.8912964,-0.089660645,9.859375,0.0,-0.09375
1635452612394,-0.32348633,0.72869873,-0.12554932,7.28125,0.71875,-9.140625
1635452612432,-0.51831055,0.5360718,-0.061828613,13.390625,-2.28125,-7.921875
1635452612469,-0.73413086,0.7680054,0.024841309,22.84375,-13.421875,-1.25
1635452612507,-0.8166504,1.2440796,0.3126831,32.15625,-5.515625,2.125
1635452612545,-0.8791504,1.999939,-0.34942627,-28.234375,-11.3125,16.5
1635452612582,-0.9941406,1.4782104,-0.09112549,-11.53125,0.609375,-10.15625
1635452612619,-0.72753906,0.8012085,0.15057373,-10.078125,2.765625,-22.375
1635452612656,-0.43774414,0.6000366,0.03729248,5.40625,9.703125,-4.453125
1635452612694,-0.31152344,0.51116943,0.04144287,15.734375,9.1875,6.578125
1635452612732,-0.3166504,0.5878296,-0.0022583008,-10.390625,0.46875,3.703125
1635452612825,-0.41625977,0.6727905,-0.025939941,-7.171875,1.75,1.015625
1635452612828,-0.4675293,0.64764404,-0.018127441,14.53125,5.0,-1.015625
1635452612863,-0.44506836,0.664978,0.06585693,8.0,-1.9375,-8.234375
1635452612900,-0.36621094,0.62713623,0.06072998,1.3125,5.046875,-12.921875
1635452612937,-0.30371094,0.62664795,0.051940918,2.078125,2.921875,-7.359375
1635452612975,-0.38476562,0.763855,0.11810303,-2.21875,1.109375,3.765625
1635452613013,-0.47875977,0.9672241,0.06048584,-2.453125,5.828125,8.28125
1635452613049,-0.59765625,1.055603,0.093444824,-1.6875,4.234375,-5.125
1635452613090,-0.5588379,1.0223999,0.13665771,-3.0,7.421875,-13.484375
1635452613124,-0.47021484,0.8473511,0.13372803,-4.9375,17.203125,-2.453125
1635452613181,-0.77075195,0.84490967,-0.24493408,-21.03125,20.5625,22.25
1635452613219,-0.9968262,1.7545776,-0.269104,-0.28125,39.0625,43.796875
1635452613256,-0.37841797,1.4882202,-0.40118408,9.703125,0.84375,-15.5625
1635452613295,-0.5280762,1.0858765,0.12567139,2.9375,-22.203125,-22.125
1635452613333,-0.62939453,0.89520264,0.1161499,6.984375,21.421875,-1.96875
1635452613369,-0.43579102,0.80804443,-0.0881958,18.3125,23.046875,6.1875
1635452613406,-0.3178711,0.69329834,-0.07696533,-8.890625,-7.4375,-17.109375
1635452613445,-0.3569336,0.6083374,0.07244873,-9.15625,-6.234375,-12.640625
1635452613481,-0.31347656,0.65911865,0.030944824,-8.3125,10.828125,7.015625
1635452613519,-0.27124023,0.70526123,-0.09234619,-13.78125,4.71875,10.078125
1635452613556,-0.31860352,0.7069702,-0.085510254,-15.796875,-7.671875,1.109375
1635452613613,-0.43896484,0.6815796,0.070007324,2.109375,-3.1875,-6.65625
1635452613650,-0.34301758,0.63153076,0.047302246,8.3125,-4.8125,-1.953125
1635452613707,-0.16503906,0.9081421,-0.06060791,-9.21875,-12.09375,2.65625
1635452613725,-0.3425293,0.9684448,-0.13824463,6.515625,4.921875,4.53125
1635452613762,-0.40454102,0.76361084,-0.02960205,23.390625,9.09375,-1.75
1635452613800,-0.5917969,0.7164917,-0.14190674,-3.828125,-8.484375,-7.015625
1635452613837,-0.9758301,1.2540894,-0.041809082,21.546875,3.15625,6.5
1635452613875,-0.873291,1.3825073,-0.11260986,13.484375,6.09375,4.421875
1635452613913,-0.7224121,1.5775757,-0.09136963,-20.078125,-12.796875,-18.5625
1635452613951,-0.73095703,1.3595581,-0.07110596,0.421875,4.8125,-7.234375
1635452614006,-0.62646484,0.8722534,-0.06500244,-9.140625,13.234375,2.796875
1635452614044,-0.42236328,0.6251831,-0.040100098,-6.515625,3.890625,-2.078125
1635452614081,-0.31054688,0.54071045,0.08514404,6.203125,-1.46875,-4.03125
1635452614120,-0.28076172,0.48114014,-0.01373291,-0.328125,-2.3125,2.203125
1635452614157,-0.3076172,0.51678467,0.012634277,6.046875,-1.84375,7.8125
1635452614194,-0.4440918,0.69036865,-0.020812988,3.859375,-2.84375,1.28125
1635452614232,-0.48388672,0.80633545,0.022155762,14.21875,-4.390625,-6.625
1635452614269,-0.35302734,0.7250366,0.07537842,12.484375,7.234375,-5.8125
1635452614325,-0.32592773,0.75457764,0.06317139,-4.0,6.53125,-0.234375
1635452614344,-0.45922852,0.949646,0.08538818,0.015625,-2.640625,0.375
1635452614400,-0.56640625,1.0773315,0.109558105,7.21875,-1.453125,-3.03125
1635452614438,-0.5727539,1.1122437,0.12200928,-0.03125,7.125,-7.015625
1635452614475,-0.49194336,0.94818115,0.18377686,7.8125,17.640625,-4.25
1635452614513,-0.54785156,0.8004761,-0.13214111,-7.6875,12.75,5.90625
1635452614550,-0.7026367,1.0944214,-0.22003174,-8.578125,17.203125,24.953125
1635452614588,-0.71435547,1.4935913,-0.2546997,6.5625,10.4375,15.765625
1635452614645,-0.58862305,1.4830933,-0.1716919,-2.03125,-13.609375,-13.375
1635452614662,-0.55493164,1.0971069,0.013366699,15.71875,0.421875,-12.703125
1635452614700,-0.39770508,0.7838745,0.047546387,17.34375,16.765625,-2.15625
1635452614738,-0.28955078,0.6107788,-0.062072754,3.515625,2.984375,-0.578125
1635452614775,-0.36328125,0.6737671,-0.011047363,-8.1875,-12.90625,1.296875
1635452614831,-0.4489746,0.7453003,0.05999756,-8.234375,0.28125,5.953125
1635452614869,-0.359375,0.7211304,0.0014038086,-11.3125,6.75,4.296875
1635452614906,-0.29589844,0.7404175,-0.035217285,-3.8125,0.84375,1.15625
1635452614944,-0.31030273,0.7460327,-0.03253174,-14.59375,-0.8125,-1.328125
1635452614983,-0.35229492,0.7616577,0.038269043,3.421875,0.75,0.828125
1635452615020,-0.29541016,0.7926636,0.0289917,6.9375,-1.4375,3.65625
1635452615056,-0.2944336,0.85443115,-0.035461426,2.8125,-4.890625,5.59375
1635452615094,-0.34838867,0.9591675,-0.034729004,2.8125,-8.21875,5.53125
1635452615131,-0.36645508,0.8707886,-0.07745361,10.25,0.46875,-1.9375
1635452615170,-0.5383301,0.64837646,-0.18560791,6.765625,3.84375,-8.9375
1635452615225,-0.8066406,0.8312378,-0.077697754,24.03125,-2.625,7.25
1635452615263,-0.8984375,1.2633667,0.2543335,32.578125,2.34375,5.875
1635452615300,-0.623291,1.4144897,-0.37823486,-34.0625,-14.0,-4.015625
1635452615338,-0.9838867,1.9655151,-0.014709473,24.5625,-3.421875,-6.296875
1635452615375,-0.67944336,0.76116943,0.070495605,-18.3125,10.703125,-7.0
1635452615413,-0.5632324,0.7223511,-0.039123535,-23.671875,8.046875,-5.34375
1635452615450,-0.31958008,0.6078491,0.11981201,25.140625,6.78125,-9.625
1635452615488,-0.2878418,0.5014038,0.066833496,9.734375,0.96875,-0.171875
1635452615526,-0.30395508,0.61639404,-0.003967285,-7.703125,-1.390625,1.859375
1635452615657,-0.40454102,0.72943115,-0.058898926,11.546875,-2.46875,-0.6875
1635452615659,-0.4963379,0.80633545,0.010681152,19.1875,-6.5625,-8.171875
1635452615661,-0.43066406,0.58270264,0.13128662,3.84375,0.453125,-7.484375
1635452615693,-0.35961914,0.59661865,0.15057373,3.453125,5.234375,-4.0
1635452615732,-0.32470703,0.8241577,0.06951904,-9.328125,-10.484375,-2.4375
1635452615769,-0.4868164,1.1312866,-0.026672363,-8.828125,-5.8125,-2.359375
1635452615807,-0.41357422,1.0270386,0.105163574,6.109375,2.484375,-6.734375
1635452615844,-0.4621582,0.8864136,0.20697021,2.109375,6.0625,-9.46875
1635452615882,-0.5007324,0.7965698,0.011169434,-11.375,6.703125,-3.171875
1635452615919,-0.71435547,0.9989624,-0.28424072,-25.5625,2.21875,22.5625
1635452615956,-1.0366211,1.5578003,-0.2913208,6.359375,41.59375,31.109375
1635452615994,-0.609375,1.5189819,-0.13726807,1.703125,9.796875,-12.0
1635452616050,-0.3334961,1.170105,-0.24786377,-16.046875,-14.125,-33.03125
1635452616088,-0.48242188,0.8539429,0.085876465,27.9375,17.234375,-7.203125
1635452616125,-0.36694336,0.6749878,0.097839355,10.0,17.9375,10.609375
1635452616162,-0.33154297,0.7272339,-0.109436035,-20.4375,-1.8125,2.265625
1635452616200,-0.4086914,0.8258667,-0.016906738,-8.609375,-8.4375,-0.828125
1635452616237,-0.3544922,0.74993896,0.021911621,-2.078125,3.890625,4.6875
1635452616275,-0.33398438,0.78778076,-0.058898926,-4.9375,3.515625,8.328125
1635452616313,-0.3408203,0.836853,-0.11773682,-9.609375,-3.28125,4.15625
1635452616350,-0.38671875,0.7411499,-0.08795166,-5.21875,-1.8125,1.203125
1635452616388,-0.36743164,0.6835327,0.07928467,15.296875,-1.140625,2.890625
1635452616443,-0.31958008,0.7250366,0.029724121,5.625,0.359375,9.046875
1635452616481,-0.38256836,0.94158936,-0.026916504,-7.453125,-2.5,11.828125
1635452616520,-0.35083008,1.0231323,-0.13653564,6.09375,0.359375,5.734375
1635452616557,-0.38305664,0.85565186,-0.024475098,24.96875,5.203125,-4.171875
1635452616593,-0.4489746,0.6251831,-0.07574463,13.5,5.40625,-13.953125
1635452616631,-0.62524414,0.62005615,-0.16192627,0.546875,-2.953125,-0.546875
1635452616669,-0.8774414,1.0648804,0.18988037,31.84375,3.375,14.4375
1635452616707,-0.717041,1.303894,-0.20684814,-19.84375,-9.3125,6.90625
1635452616744,-0.9719238,1.999939,-0.28179932,-12.375,-19.140625,0.0625
1635452616781,-0.81347656,1.0787964,0.15057373,16.25,24.640625,-15.109375
1635452616838,-0.47265625,0.7694702,-0.10040283,-33.578125,5.5,-18.078125
1635452616875,-0.16967773,0.7765503,-0.009338379,-0.015625,-7.15625,-12.109375
1635452616913,-0.28686523,0.58221436,0.020690918,13.796875,-7.25,6.0625
1635452616951,-0.40966797,0.48651123,-0.03375244,1.328125,-2.75,15.546875
1635452616988,-0.46435547,0.5975952,0.03778076,13.421875,-1.90625,6.859375
1635452617027,-0.49609375,0.7001343,-0.042297363,20.453125,-7.890625,-14.421875
1635452617062,-0.4206543,0.6400757,0.066833496,13.625,-8.140625,-15.234375
1635452617100,-0.3930664,0.61712646,0.12786865,5.046875,7.390625,-4.484375
1635452617138,-0.3564453,0.81707764,0.0028686523,-4.765625,-0.78125,1.359375
1635452617175,-0.4338379,1.1325073,-0.010559082,-8.53125,-5.390625,0.484375
1635452617213,-0.5185547,1.0751343,0.022155762,3.28125,4.3125,-3.296875
1635452617269,-0.48120117,0.95355225,0.14593506,6.21875,-1.5625,-7.921875
1635452617306,-0.46313477,0.9196167,0.13470459,2.546875,2.203125,-2.609375
1635452617345,-0.5390625,0.8690796,-0.08453369,-7.015625,12.578125,10.53125
1635452617381,-0.84472656,1.0617065,-0.24420166,-13.421875,20.546875,22.796875
1635452617419,-0.8105469,1.2775269,-0.17462158,13.921875,20.171875,15.5
1635452617456,-0.45825195,1.524353,-0.22662354,2.71875,-3.90625,-14.078125
1635452617494,-0.39746094,1.0394897,-0.031066895,-0.421875,-11.40625,-24.859375
1635452617531,-0.44750977,0.8353882,0.097595215,16.765625,11.6875,1.0
1635452617569,-0.3779297,0.7057495,-0.010803223,7.390625,9.421875,11.484375
1635452617606,-0.41479492,0.78948975,-0.05645752,-12.6875,-12.40625,0.1875
1635452617662,-0.47705078,0.82806396,0.008483887,-3.859375,-6.828125,-3.78125
1635452617701,-0.35839844,0.74676514,-0.023254395,0.1875,3.546875,-2.90625
1635452617737,-0.26342773,0.69525146,0.024108887,1.078125,-0.171875,-1.6875
1635452617775,-0.2668457,0.76312256,-0.012023926,-13.109375,-6.265625,-1.09375
1635452617812,-0.32543945,0.760437,-0.020324707,-6.140625,-5.34375,1.71875
1635452617849,-0.34594727,0.76068115,0.028503418,8.078125,-3.34375,7.359375
1635452617887,-0.36328125,0.8102417,-0.020080566,5.796875,-0.265625,8.21875
1635452617925,-0.4375,0.9450073,-0.02960205,10.078125,1.53125,-0.953125
1635452617963,-0.3100586,0.83587646,-0.05987549,9.09375,7.078125,-13.0
1635452618000,-0.41723633,0.69940186,-0.090148926,3.484375,3.53125,-10.3125
1635452618057,-0.62280273,1.0429077,-0.09210205,14.4375,2.921875,4.28125
1635452618094,-0.7775879,1.1647339,0.038269043,22.734375,4.890625,-0.9375
1635452618131,-0.77441406,1.1325073,-0.10675049,-25.890625,-9.71875,-9.453125
1635452618169,-0.7939453,1.4786987,-0.004211426,-6.28125,-1.328125,-7.0625
1635452618206,-0.71655273,1.3102417,-0.03765869,17.28125,20.46875,3.09375
1635452618244,-0.53759766,0.8348999,-0.0015258789,-11.96875,10.921875,-0.4375
1635452618281,-0.3371582,0.7880249,0.05657959,-7.328125,1.625,-8.390625
1635452618319,-0.3371582,0.6742554,-0.0068969727,-2.265625,2.0625,-2.28125
1635452618356,-0.29858398,0.53582764,0.019714355,7.640625,4.640625,7.140625
1635452618394,-0.31152344,0.52948,0.06878662,7.828125,1.3125,1.359375
1635452618450,-0.42822266,0.6588745,0.07733154,6.53125,-7.078125,-5.9375
1635452618489,-0.41455078,0.79901123,0.09124756,10.234375,-1.6875,-1.15625
1635452618525,-0.3125,0.8053589,4.272461E-4,8.765625,7.234375,-1.5625
1635452618563,-0.37573242,0.88739014,0.09637451,6.34375,-6.171875,-3.359375
1635452618600,-0.5578613,1.0299683,0.1642456,1.78125,-4.4375,-2.5
1635452618640,-0.5144043,1.0077515,0.1593628,13.296875,-0.0625,-3.140625
1635452618675,-0.4724121,0.90008545,0.168396,4.703125,-0.734375,-9.0625
1635452618713,-0.44921875,0.80389404,0.21673584,9.890625,7.25,-0.75
1635452618751,-0.64331055,0.8661499,-0.0017700195,-7.515625,7.65625,17.4375
1635452618788,-1.0927734,1.527771,-0.25958252,-20.390625,23.25,40.96875
1635452618826,-0.501709,1.6693726,-0.43878174,5.5625,25.203125,-4.03125
1635452618881,-0.45385742,0.92303467,-0.02154541,-3.0,-29.046875,-18.75
1635452618919,-0.5551758,0.93914795,0.27093506,16.265625,12.625,1.859375
1635452618956,-0.4477539,0.7711792,-0.07574463,6.78125,27.40625,4.859375
1635452618994,-0.20800781,0.77508545,-0.13580322,-15.40625,0.515625,-13.15625
1635452619031,-0.26513672,0.5997925,-0.014465332,-10.609375,-12.828125,-7.734375
1635452619068,-0.45214844,0.69696045,0.058532715,-21.265625,-2.703125,13.265625
1635452619107,-0.5578613,0.94818115,-0.04083252,-21.671875,4.453125,14.3125
1635452619144,-0.53344727,1.1998901,-0.12579346,2.296875,-0.53125,1.0625
1635452619182,-0.38134766,1.0900269,-0.15924072,-6.828125,3.015625,-9.703125
1635452619219,-0.40014648,0.8834839,-0.10699463,-4.546875,0.53125,-5.34375
1635452619276,-0.4741211,0.7848511,-0.070373535,5.078125,1.546875,2.296875
1635452619313,-0.4892578,0.7172241,-0.046691895,7.75,4.046875,6.296875
1635452619351,-0.5307617,0.8275757,-0.07183838,0.546875,-0.953125,10.78125
1635452619387,-0.49365234,1.0570679,-0.11212158,-2.125,-2.46875,4.3125
