# Sensor type: Respeck
# Activity type: Movement
# Activity code: 9
# Subject id: s1788488
# Notes: 
timestamp,accel_x,accel_y,accel_z,gyro_x,gyro_y,gyro_z
1635453024855,0.00390625,-1.0122681,0.066833496,5.3125,0.234375,-0.328125
1635453024893,0.04296875,-1.0420532,0.074401855,0.921875,-1.03125,-0.78125
1635453024931,0.0075683594,-0.9841919,0.089538574,1.640625,-0.46875,-0.734375
1635453024969,-0.006591797,-0.9985962,0.058044434,2.640625,0.28125,-1.390625
1635453025006,0.060546875,-1.083313,0.07122803,5.0625,-2.25,-0.84375
1635453025044,0.07763672,-1.0147095,0.059020996,2.109375,-2.59375,0.9375
1635453025099,0.008300781,-0.92559814,0.05682373,-0.6875,-2.0625,-1.109375
1635453025138,-0.045410156,-0.9873657,0.054138184,1.03125,-0.296875,-3.0625
1635453025174,-0.024658203,-1.0078735,0.116882324,-0.21875,0.65625,-0.875
1635453025212,-0.0021972656,-0.9644165,0.08123779,4.171875,1.4375,0.390625
1635453025251,0.068603516,-1.05719,0.12713623,-0.171875,0.359375,-0.40625
1635453025307,0.057373047,-1.0430298,0.13470459,-0.921875,-6.328125,-1.078125
1635453025326,-0.017822266,-0.98516846,0.03753662,4.296875,-3.9375,1.71875
1635453025362,0.0075683594,-0.96466064,0.08099365,0.671875,-4.921875,2.640625
1635453025400,0.0063476562,-0.99224854,0.11859131,1.078125,-5.59375,0.625
1635453025438,-0.068603516,-1.0215454,0.070007324,-1.21875,-2.328125,-0.046875
1635453025493,-0.064453125,-0.97369385,0.07904053,2.34375,-1.703125,1.71875
1635453025531,-0.021240234,-0.9741821,0.04827881,2.5,-0.046875,2.796875
1635453025590,-0.060791016,-1.0874634,0.009460449,6.8125,1.328125,2.890625
1635453025606,-0.043945312,-1.0818481,-0.027160645,2.0625,7.015625,1.328125
1635453025643,0.014404297,-1.052063,-0.0051879883,10.71875,7.203125,3.640625
1635453025682,0.08618164,-1.0576782,-0.018859863,9.578125,0.765625,3.921875
1635453025719,0.08666992,-1.1045532,-6.1035156E-5,4.828125,-4.875,2.046875
1635453025757,-0.037597656,-1.1721802,-0.009094238,5.25,-6.375,3.609375
1635453025794,-0.16381836,-1.0886841,0.0036010742,-4.625,-1.296875,3.5
1635453025832,-0.1496582,-1.0610962,0.06561279,8.234375,1.328125,5.75
1635453025888,-0.07519531,-1.0166626,0.07318115,9.578125,2.1875,11.28125
1635453025927,-0.11010742,-0.911438,0.09588623,6.34375,-0.75,11.8125
1635453025962,-0.072509766,-0.7564087,0.15301514,12.53125,-2.125,8.71875
1635453026000,0.053222656,-0.77130127,0.17547607,6.03125,-13.375,6.421875
1635453026038,-0.021484375,-0.86968994,0.08148193,-0.765625,-20.875,5.109375
1635453026075,-0.15039062,-0.91363525,0.016052246,-7.546875,-16.234375,0.046875
1635453026112,-0.08203125,-0.897522,-0.19244385,22.390625,-8.875,-4.078125
1635453026150,0.40625,-1.7859497,0.078063965,21.40625,-13.796875,-5.875
1635453026187,0.3972168,-1.3899536,0.055358887,-25.640625,-35.078125,-3.1875
1635453026225,0.028808594,-0.45343018,-0.081848145,-8.625,-10.09375,-0.75
1635453026262,0.103027344,-0.5586548,-0.12188721,10.578125,-30.109375,17.34375
1635453026319,0.14648438,-0.9951782,0.23406982,-17.75,9.875,2.4375
1635453026360,0.19848633,-1.6257935,0.15423584,-1.0625,-1.375,-5.375
1635453026394,0.095214844,-1.0618286,0.21307373,-13.796875,16.015625,9.984375
1635453026433,0.19189453,-0.7571411,0.050476074,-4.375,0.140625,5.140625
1635453026469,0.234375,-0.8892212,0.13128662,-4.078125,17.96875,11.484375
1635453026507,0.24951172,-1.0684204,0.2506714,-9.21875,21.0625,9.046875
1635453026543,0.1105957,-1.123352,0.26312256,-1.0625,14.96875,2.78125
1635453026581,0.025146484,-0.9805298,0.16986084,2.265625,20.109375,1.171875
1635453026620,-0.008300781,-0.8713989,0.15545654,8.046875,15.40625,-5.6875
1635453026663,-0.12207031,-0.76275635,0.054138184,17.390625,17.703125,-9.484375
1635453026712,-0.09033203,-0.59210205,0.07879639,12.578125,30.09375,-13.0
1635453026751,-0.068847656,-0.5515747,0.15423584,0.65625,25.625,-16.125
1635453026787,-0.12207031,-0.84576416,0.00579834,-13.390625,38.84375,-7.5
1635453026827,1.0812988,-1.8738403,-0.30767822,-27.203125,23.625,20.453125
1635453026863,0.22314453,-1.8938599,-0.41534424,3.125,26.0,-1.890625
1635453026902,0.45385742,-0.9656372,-0.05255127,-11.9375,52.9375,-4.75
1635453026937,0.6123047,-0.63067627,0.30267334,7.15625,0.734375,4.25
1635453026975,0.52319336,-0.80352783,-0.07672119,33.296875,-20.6875,2.609375
1635453027035,0.099121094,-1.3242798,-0.26885986,11.671875,-21.71875,-16.921875
1635453027049,0.111816406,-0.77911377,-0.1963501,2.796875,-14.25,-8.65625
1635453027106,0.07128906,-0.6865845,-0.06866455,9.734375,-16.1875,-11.078125
1635453027144,0.029052734,-1.0120239,6.713867E-4,10.828125,-22.53125,-2.140625
1635453027181,-0.07739258,-1.0352173,-0.044006348,6.1875,-15.765625,-1.40625
1635453027218,-0.06640625,-1.0515747,-0.032287598,7.03125,-10.953125,0.4375
1635453027256,-0.17358398,-0.8670044,0.06365967,4.015625,-7.796875,0.453125
1635453027294,-0.21386719,-0.90460205,0.09906006,12.125,1.328125,5.75
1635453027332,-0.06958008,-0.8635864,0.13983154,13.3125,2.015625,11.546875
1635453027369,-0.0043945312,-0.7319946,0.09466553,12.875,0.21875,17.0
1635453027407,0.09472656,-0.5823364,-0.0056762695,20.046875,-2.640625,14.75
1635453027444,0.623291,-0.42095947,-0.4680786,38.28125,-30.140625,12.59375
1635453027500,1.9050293,-1.8738403,-0.23883057,38.890625,-46.453125,22.125
1635453027538,0.7241211,-1.3428345,0.3283081,-58.21875,-56.6875,-21.171875
1635453027575,-0.11328125,-0.77545166,-0.41705322,32.0,-42.453125,7.859375
1635453027613,-0.119140625,-0.8760376,-0.2144165,-14.421875,-49.21875,43.421875
1635453027650,0.26464844,-1.4048462,-0.13482666,41.421875,7.015625,30.046875
1635453027687,0.55029297,-1.5635376,-0.29937744,-16.25,9.171875,34.03125
1635453027725,0.32543945,-0.8897095,0.062683105,-23.3125,20.46875,20.3125
1635453027763,0.26538086,-0.80426025,0.18548584,12.34375,14.703125,7.25
1635453027822,0.11743164,-0.77056885,0.4244995,-16.171875,10.171875,-9.5
1635453027839,-0.18237305,-0.3875122,0.22747803,26.78125,-2.0625,-31.5
1635453027876,-0.34375,-0.08868408,0.018005371,25.78125,29.28125,-42.53125
1635453027932,-0.32226562,-0.109191895,-0.3640747,-3.828125,64.09375,-52.515625
1635453027969,1.999939,-1.0064087,-2.0,15.78125,-108.078125,-11.6875
1635453028006,0.876709,-2.0,0.10003662,-97.671875,-91.65625,-29.515625
1635453028044,-0.3857422,-1.3242798,-0.4973755,9.609375,88.8125,-21.3125
1635453028083,0.51586914,-0.53009033,-0.023498535,-30.578125,-48.71875,20.5
1635453028120,0.54833984,-0.3567505,-0.11651611,49.09375,-14.984375,7.765625
1635453028156,0.3059082,-0.87042236,-0.237854,12.9375,0.625,-13.03125
1635453028194,0.13208008,-0.86553955,-0.03741455,-21.453125,-4.9375,-22.640625
1635453028231,0.18286133,-0.4385376,-0.05303955,6.25,-25.40625,-23.8125
1635453028269,0.020263672,-0.6292114,-0.002746582,7.015625,-28.609375,-15.796875
1635453028344,-0.0949707,-1.0708618,-0.0635376,1.96875,-8.875,-16.578125
1635453028363,-0.15112305,-1.013977,0.055847168,-9.609375,-10.84375,-9.3125
1635453028400,-0.2763672,-0.864563,0.027282715,-8.875,-3.578125,-19.671875
1635453028438,-0.29760742,-0.96295166,0.07366943,-0.5625,4.0,-15.96875
1635453028476,-0.25878906,-1.0840454,0.15814209,2.96875,1.71875,-2.8125
1635453028513,-0.26098633,-0.90216064,0.152771,-6.703125,10.53125,3.59375
1635453028550,-0.028808594,-0.5432739,-0.45343018,34.890625,-14.6875,7.3125
1635453028587,0.87597656,-1.37677,-0.23565674,30.484375,22.75,4.578125
1635453028625,1.3310547,-2.0,0.74139404,-9.046875,-22.578125,6.90625
1635453028662,0.060546875,-1.0657349,-0.4307251,10.125,-14.203125,3.1875
1635453028719,-0.03930664,-0.89068604,-0.16339111,3.84375,-13.078125,24.875
1635453028756,0.5007324,-1.2271118,0.1515503,7.03125,3.921875,19.765625
1635453028794,0.4465332,-1.2610474,0.023376465,4.21875,0.40625,28.640625
1635453028832,0.32861328,-0.87945557,-6.1035156E-5,-22.296875,-4.4375,36.3125
1635453028869,0.17895508,-0.7803345,0.29632568,-12.671875,14.296875,22.203125
1635453028907,-0.15454102,-0.85723877,0.17645264,1.84375,5.09375,-8.203125
1635453028944,-0.38549805,-0.70684814,-0.11578369,39.953125,21.75,-5.96875
1635453028981,-0.39257812,-0.28131104,-0.16802979,24.625,45.96875,-24.453125
1635453029019,-0.20166016,-0.31622314,0.34588623,-32.421875,79.609375,-41.46875
1635453029056,0.20947266,-0.23638916,-0.5779419,23.265625,56.21875,-19.8125
1635453029093,1.999939,-2.0,0.18670654,-172.0625,55.421875,119.453125
1635453029150,-0.46484375,-2.0,-0.41534424,36.359375,-22.890625,-92.03125
1635453029192,-0.079589844,-1.1694946,0.045837402,46.5,61.15625,40.609375
1635453029224,0.6828613,-0.4932251,-0.03643799,16.375,-49.109375,49.03125
1635453029262,0.888916,-0.6104126,0.03729248,21.109375,-14.703125,-6.046875
1635453029301,0.26220703,-0.88116455,-0.43658447,-6.953125,-25.84375,-7.5
1635453029338,-0.2614746,-0.8440552,-0.09991455,-1.203125,4.15625,-25.140625
1635453029375,0.17871094,-0.54107666,-0.028381348,28.34375,-29.8125,-13.71875
1635453029412,0.45263672,-0.5786743,-0.02545166,4.390625,-22.546875,-2.0625
1635453029451,0.0012207031,-0.8284302,-0.0012817383,7.671875,-19.34375,-8.171875
1635453029488,-0.1508789,-1.225647,-0.013000488,2.453125,-28.34375,-25.453125
1635453029563,-0.087890625,-1.2005005,0.15203857,10.34375,-12.421875,-7.265625
1635453029582,-0.1184082,-0.98028564,0.098083496,-9.734375,-9.28125,-3.109375
1635453029621,-0.36572266,-0.8694458,-0.0413208,19.875,-8.46875,-1.890625
1635453029659,-0.29370117,-1.1936646,0.038757324,7.5,7.546875,4.6875
1635453029693,-0.05102539,-1.133606,0.10223389,-2.8125,9.296875,8.515625
1635453029733,-0.080078125,-0.6260376,0.034851074,-4.53125,13.984375,7.75
1635453029769,-0.012451172,-0.34796143,-0.038879395,-2.046875,0.421875,13.21875
1635453029807,0.1105957,-0.30670166,-0.37872314,10.234375,4.390625,15.71875
1635453029844,1.4133301,-2.0,-0.3731079,18.953125,22.53125,3.359375
1635453029881,0.6442871,-1.5969849,0.098083496,-43.765625,-1.9375,-19.078125
1635453029938,-0.2915039,-0.6499634,-0.48223877,-13.21875,-0.234375,5.40625
1635453029975,-0.06738281,-0.53082275,-0.22540283,6.59375,-18.875,6.28125
1635453030012,0.23999023,-1.3069458,0.26678467,16.46875,14.671875,-1.71875
1635453030049,0.3972168,-1.451477,0.18475342,-27.90625,-11.484375,12.953125
1635453030088,0.18920898,-0.5918579,-0.014709473,-14.171875,6.328125,4.203125
1635453030125,0.30371094,-0.45587158,-0.0017700195,6.375,6.03125,3.53125
1635453030163,0.39379883,-0.69366455,0.22625732,-8.90625,9.5625,-0.28125
1635453030201,0.2705078,-1.0532837,0.14544678,-7.421875,-9.375,2.734375
1635453030237,0.009033203,-1.1160278,0.020690918,-11.9375,-2.46875,-10.453125
1635453030275,-0.052490234,-0.9151001,0.18231201,1.6875,1.421875,-18.09375
1635453030313,-0.023925781,-0.753479,0.19891357,3.0625,-0.96875,-17.359375
1635453030369,-0.1694336,-0.5772095,0.23968506,7.234375,0.015625,-17.4375
1635453030407,-0.4033203,-0.5552368,-0.01373291,13.296875,10.359375,-17.171875
1635453030444,0.28344727,-1.2910767,-0.62213135,-18.796875,58.921875,19.546875
1635453030481,0.7541504,-1.2434692,0.26531982,-59.15625,31.0625,28.171875
1635453030519,-0.06542969,-1.5562134,-0.065979004,15.8125,32.53125,-19.65625
1635453030560,0.19799805,-1.0615845,0.034606934,46.015625,19.8125,20.703125
1635453030593,0.6176758,-0.84210205,0.061706543,11.546875,-35.390625,24.40625
1635453030631,0.60009766,-0.73150635,-0.18218994,19.046875,-1.9375,4.3125
1635453030668,0.0146484375,-1.0327759,-0.13043213,20.53125,0.859375,-21.578125
1635453030708,-0.2397461,-0.9368286,-0.15777588,13.765625,0.6875,-3.53125
1635453030762,0.24194336,-0.54473877,-0.016906738,20.171875,-11.578125,12.734375
1635453030801,0.46020508,-0.57769775,-0.023742676,8.84375,-10.234375,3.1875
1635453030837,0.018310547,-0.927063,0.040222168,-7.109375,-8.0625,-11.828125
1635453030875,-0.4416504,-1.0603638,0.016052246,-2.875,-11.703125,-11.046875
1635453030912,-0.26879883,-0.7871704,0.105895996,11.21875,10.609375,3.5625
1635453030952,-0.07763672,-0.5852661,0.07635498,1.21875,15.484375,1.59375
1635453031006,0.2541504,-0.4072876,-0.17315674,-9.53125,-3.109375,2.78125
1635453031025,0.9382324,-0.5371704,-0.14263916,30.921875,-1.9375,4.984375
1635453031062,1.7143555,-2.0,0.35614014,-31.84375,-20.765625,-36.015625
1635453031099,-0.5695801,-1.8745728,-0.29986572,12.578125,12.765625,20.265625
1635453031156,0.10253906,-0.80792236,-0.597229,-5.234375,-51.984375,26.75
1635453031195,1.2504883,-1.0669556,0.49090576,24.828125,9.046875,40.21875
1635453031230,0.7680664,-1.8181763,-0.04473877,-2.28125,-25.375,22.734375
1635453031268,-0.32470703,-1.3342896,0.020935059,-40.1875,9.125,9.109375
1635453031306,-0.03100586,-0.7564087,0.22332764,39.203125,-25.25,19.359375
1635453031343,-0.08203125,-0.0032348633,0.42889404,8.796875,-11.703125,-1.0625
1635453031381,-0.62109375,0.418396,-0.17877197,58.15625,-1.96875,-15.640625
1635453031437,-0.5083008,0.105895996,0.1762085,-36.0625,56.96875,-39.265625
1635453031456,0.17407227,-0.21612549,-1.1050415,43.90625,46.53125,-24.28125
1635453031494,1.4926758,-1.8687134,1.9108276,-512.0,188.625,73.109375
1635453031550,-0.019042969,-2.0,-0.9783325,51.203125,31.75,-105.84375
1635453031589,-0.115234375,-1.6975708,-0.2654419,-4.390625,81.03125,5.40625
1635453031625,0.67163086,-0.31085205,0.47991943,71.09375,-14.203125,44.328125
1635453031664,0.8010254,-0.9898071,-0.078186035,12.296875,-5.453125,-0.1875
1635453031700,0.19360352,-1.1370239,-0.4837036,-30.25,2.65625,-23.15625
1635453031737,-0.15917969,-0.5857544,-0.13946533,30.640625,0.359375,-16.484375
1635453031775,0.10205078,-0.20074463,0.001159668,17.890625,-14.515625,-3.296875
1635453031814,0.15039062,-0.25567627,-0.12945557,11.765625,12.5,2.28125
1635453031850,0.1586914,-0.675354,-0.086242676,12.765625,-9.296875,-10.046875
1635453031906,0.03173828,-1.1443481,-0.028381348,8.53125,-14.84375,-22.875
1635453031926,-0.13134766,-1.2124634,-0.0049438477,-7.703125,-15.15625,-24.9375
1635453031981,-0.421875,-0.9053345,-0.16729736,-35.359375,-5.046875,-24.078125
1635453032019,-0.3330078,-0.51812744,-0.33917236,0.921875,35.109375,-5.140625
1635453032056,0.73583984,-1.2678833,0.230896,39.734375,17.78125,-14.84375
1635453032094,1.4208984,-2.0,0.14154053,-28.8125,10.359375,-7.78125
1635453032131,0.1538086,-0.8218384,-0.69244385,-23.640625,-34.015625,-14.875
1635453032171,-0.21191406,-0.48345947,-0.07989502,-5.640625,-9.875,-12.4375
1635453032206,0.084228516,-0.989563,0.42889404,-6.890625,13.984375,15.1875
1635453032243,0.34887695,-1.4736938,-0.02130127,-0.546875,-7.4375,16.09375
1635453032282,0.24926758,-0.80352783,-0.045959473,-23.390625,13.3125,6.625
1635453032356,0.2536621,-0.3867798,0.12445068,5.59375,7.046875,15.40625
1635453032375,0.1784668,-0.59869385,0.20721436,-6.90625,8.75,4.859375
1635453032412,0.024169922,-0.7612915,0.13787842,-10.9375,-0.734375,-9.203125
1635453032450,-0.08666992,-0.7053833,0.020935059,9.28125,3.828125,-11.34375
1635453032488,-0.049804688,-0.39923096,0.16400146,0.203125,27.5,-18.265625
1635453032525,-0.009765625,-0.41436768,0.01727295,6.4375,27.84375,-19.96875
1635453032563,1.999939,-2.0,-0.2456665,64.59375,-89.59375,120.328125
1635453032600,-0.39916992,-1.9089966,-0.69854736,-63.484375,-58.5,-55.671875
1635453032638,-0.3034668,-0.923645,-0.33770752,25.78125,89.71875,-19.1875
1635453032675,0.3623047,-0.7803345,0.2682495,1.71875,11.78125,11.546875
1635453032770,0.6311035,-0.91192627,-0.07281494,20.921875,-10.375,15.890625
1635453032773,0.21362305,-1.3001099,-0.35772705,16.84375,6.296875,-18.328125
1635453032807,-0.18237305,-1.0425415,-0.20489502,-12.421875,17.1875,-16.203125
1635453032844,0.026855469,-0.4920044,0.014587402,14.59375,-3.015625,2.6875
1635453032881,0.22021484,-0.59625244,-0.020812988,12.484375,-0.015625,2.78125
1635453032919,0.059814453,-0.85723877,0.03363037,7.296875,-2.296875,-1.203125
1635453032957,-0.16186523,-1.0454712,-0.026672363,-6.203125,-6.546875,-6.828125
1635453032994,-0.2619629,-0.8970337,0.116882324,-6.171875,-4.03125,-4.421875
1635453033032,-0.33813477,-0.8389282,-0.07232666,9.734375,4.609375,1.5
1635453033106,-0.12524414,-1.0874634,-0.042297363,12.453125,3.984375,6.453125
1635453033109,0.18188477,-1.2068481,0.053649902,-1.96875,0.234375,3.5
1635453033144,0.40820312,-1.6565552,-0.36138916,17.5625,-5.15625,-11.53125
1635453033200,0.5407715,-1.4363403,0.24163818,-28.90625,-16.5625,-4.65625
1635453033238,0.49072266,-0.7468872,0.24359131,-5.265625,-14.890625,6.34375
1635453033276,-0.114990234,-0.58966064,-0.17095947,-10.578125,-24.9375,3.765625
1635453033313,-0.28076172,-0.74957275,-0.038879395,-10.9375,10.15625,11.234375
1635453033351,0.076171875,-1.0542603,0.21697998,-13.265625,25.515625,8.0625
1635453033389,0.54296875,-1.3584595,0.20672607,-0.390625,13.109375,20.046875
1635453033426,0.4025879,-0.9331665,0.26800537,-25.015625,15.625,10.234375
1635453033462,0.11791992,-0.75982666,0.1437378,2.90625,-3.140625,10.65625
1635453033500,0.27441406,-0.8765259,0.17108154,0.140625,-1.375,10.828125
1635453033538,0.26171875,-0.9714966,0.3361206,2.421875,-7.578125,7.859375
1635453033594,0.04736328,-0.90460205,0.17059326,8.921875,-10.109375,3.03125
1635453033631,-0.07128906,-0.8491821,0.14007568,18.5625,-5.125,-3.09375
1635453033669,-0.04638672,-0.75616455,0.1593628,12.28125,4.25,-5.046875
1635453033707,-0.06567383,-0.7630005,0.21575928,11.53125,14.015625,-11.9375
1635453033744,-0.20043945,-0.8821411,0.16156006,14.375,20.25,-21.46875
1635453033781,-0.21826172,-0.8921509,-0.16485596,12.015625,33.640625,-13.046875
1635453033819,1.999939,-2.0,-0.20611572,65.453125,-39.96875,90.359375
1635453033858,0.36669922,-1.1045532,-0.36871338,-41.203125,-29.71875,-34.390625
1635453033894,-0.46435547,-0.7190552,-0.3945923,-9.828125,95.375,-34.5
1635453033932,0.20166016,-1.0479126,0.1149292,34.703125,-1.6875,32.03125
1635453034026,0.76660156,-0.91363525,0.09954834,22.90625,1.953125,4.71875
1635453034030,0.37280273,-0.85723877,-0.2744751,2.8125,-0.078125,-18.96875
1635453034063,-0.14135742,-0.9204712,-0.31793213,0.96875,-7.171875,-5.15625
1635453034100,0.015625,-0.8545532,-0.15020752,26.265625,-15.9375,-5.375
1635453034138,0.2475586,-1.0298462,0.030700684,18.84375,-14.765625,-0.1875
1635453034173,0.12060547,-1.1172485,-0.02178955,4.234375,-41.078125,4.8125
1635453034212,-0.15795898,-0.8386841,-0.057678223,-3.578125,-35.3125,1.6875
1635453034250,-0.27514648,-0.7998657,0.00579834,-8.09375,-32.640625,-3.46875
1635453034288,0.0029296875,-0.78302,-0.062805176,-14.578125,-26.78125,2.21875
1635453034324,0.35302734,-0.44000244,-0.14605713,-36.046875,-20.671875,4.75
1635453034382,1.3056641,-0.7649536,0.49920654,41.921875,-26.34375,-7.78125
1635453034419,0.45532227,-2.0,0.32147217,-63.9375,-34.890625,-60.265625
1635453034475,-0.69189453,-1.3464966,-0.23516846,8.984375,-35.375,10.546875
1635453034494,-0.5227051,-0.42755127,-0.25323486,13.84375,-7.15625,16.75
1635453034532,0.43701172,-0.7727661,0.21575928,-10.671875,36.640625,27.1875
1635453034570,0.52441406,-0.96661377,0.5717163,-23.390625,27.578125,0.234375
1635453034606,0.055664062,-1.196106,0.21356201,2.25,-5.9375,-0.375
1635453034643,-0.12524414,-0.89630127,0.0045776367,2.90625,15.953125,4.171875
1635453034681,0.2006836,-0.678772,0.33538818,2.953125,15.703125,3.125
1635453034719,0.17285156,-0.7739868,0.28045654,8.765625,3.671875,-6.375
1635453034757,-0.047851562,-0.8118286,0.19793701,17.828125,-5.234375,-15.265625
1635453034813,-0.23461914,-0.81207275,-0.016906738,20.96875,1.828125,-17.5
1635453034850,-0.0068359375,-0.8706665,0.019714355,-1.6875,28.703125,-4.90625
1635453034887,0.5,-1.2612915,-0.3501587,13.96875,3.90625,32.703125
1635453034931,0.5810547,-1.6294556,-0.66119385,-10.09375,28.9375,24.1875
1635453034962,0.07006836,-1.1419067,-0.14898682,-23.640625,75.375,-5.921875
1635453035038,0.18896484,-1.2229614,0.2189331,31.5,17.90625,20.015625
1635453035041,0.5480957,-0.9883423,-0.20587158,17.546875,7.375,24.53125
1635453035075,0.2692871,-0.97735596,-0.0725708,7.078125,18.359375,9.421875
1635453035112,-0.0068359375,-0.942688,-0.18585205,14.203125,2.34375,-0.546875
1635453035151,0.10131836,-0.66241455,-0.0647583,14.671875,4.6875,4.609375
1635453035206,0.26464844,-0.6026001,0.11126709,20.875,-10.984375,8.375
1635453035244,0.041748047,-0.9985962,0.081726074,-7.71875,-28.21875,2.109375
1635453035281,-0.29736328,-0.9517212,0.0016479492,-27.859375,-26.671875,-12.859375
1635453035319,-0.013183594,-0.56988525,-0.25689697,-10.078125,-25.78125,-11.609375
1635453035359,1.2648926,-1.6397095,-0.1638794,45.421875,-37.96875,-2.25
1635453035396,1.0256348,-1.8184204,0.5531616,-48.828125,10.203125,-22.375
1635453035432,0.005126953,-0.6921997,-0.33917236,-18.734375,-39.46875,4.125
1635453035469,-0.59936523,-0.4607544,-0.20855713,-0.59375,-14.140625,-4.03125
1635453035506,0.15942383,-0.6482544,0.055847168,14.859375,15.140625,11.65625
1635453035548,0.82666016,-1.2363892,0.40203857,-19.890625,51.765625,4.3125
1635453035600,0.37670898,-1.4072876,0.4142456,-6.859375,-10.734375,-19.359375
1635453035640,-0.0078125,-0.8171997,-0.20806885,15.6875,-4.34375,-11.671875
1635453035732,0.083496094,-0.5010376,0.0014038086,0.828125,20.34375,-4.015625
1635453035735,0.17504883,-0.53863525,0.27703857,-9.984375,34.3125,-9.609375
1635453035751,-0.047607422,-0.8345337,0.29925537,0.03125,-1.1875,-16.125
1635453035787,-0.13208008,-0.9390259,0.13348389,6.328125,7.71875,-15.5
1635453035844,0.13305664,-0.83673096,0.1605835,14.515625,-1.328125,-9.109375
1635453035863,0.03564453,-0.83917236,0.19354248,-0.46875,2.484375,-15.328125
1635453035900,-0.23168945,-1.1140747,-0.33111572,-2.65625,8.09375,-7.890625
1635453035938,1.4462891,-2.0,-0.91119385,21.375,47.140625,75.203125
1635453035976,0.58032227,-1.08844,-0.2925415,-14.484375,14.453125,-8.421875
1635453036031,0.036865234,-0.84381104,0.2682495,0.109375,50.390625,-23.515625
1635453036070,0.32641602,-1.2498169,-0.30963135,25.390625,-11.46875,19.328125
1635453036106,0.39794922,-0.68292236,-0.17803955,5.09375,12.03125,4.296875
1635453036154,0.1508789,-0.6795044,-0.17071533,23.21875,7.765625,-6.40625
1635453036180,0.12426758,-0.8562622,-0.12530518,4.140625,2.5625,-8.4375
1635453036219,0.14990234,-0.8970337,0.11395264,8.40625,-9.53125,-7.390625
1635453036257,-0.103515625,-0.9990845,-0.082092285,-2.15625,-15.828125,-7.609375
1635453036295,-0.33374023,-0.83062744,0.049987793,-18.1875,-3.96875,-7.90625
1635453036335,-0.24194336,-0.8303833,-0.061828613,16.96875,-9.46875,1.734375
1635453036369,-0.022216797,-0.8430786,0.12030029,-1.453125,-4.46875,7.65625
1635453036426,0.03125,-0.90875244,0.14837646,-10.40625,-10.625,-5.25
1635453036463,0.13867188,-0.659729,-0.32354736,10.359375,-16.671875,-8.96875
1635453036500,1.6103516,-2.0,0.2062378,26.828125,-16.65625,-25.8125
1635453036538,0.5773926,-1.3848267,0.29925537,-41.671875,-45.03125,-24.9375
1635453036575,-0.5559082,-0.83551025,-0.5901489,32.59375,-12.9375,13.4375
1635453036614,-0.24584961,-0.72906494,-0.29351807,7.703125,2.328125,18.46875
1635453036650,0.29516602,-0.86016846,0.2633667,-22.625,44.296875,29.890625
1635453036690,0.6833496,-1.0283813,0.3944702,-3.046875,8.390625,-0.984375
1635453036725,0.08105469,-1.0134888,0.051696777,11.859375,4.46875,13.859375
1635453036764,-0.0014648438,-0.8845825,-0.09869385,-7.375,12.640625,18.1875
1635453036819,0.33251953,-0.7461548,0.21160889,-7.609375,16.96875,9.171875
1635453036857,0.35229492,-0.942688,0.36541748,2.3125,-5.28125,2.234375
1635453036894,-0.026123047,-0.8916626,0.062927246,2.03125,-5.359375,3.625
1635453036932,-0.24926758,-0.7420044,0.08758545,19.21875,5.96875,-9.609375
1635453036969,0.02758789,-0.5786743,0.25238037,4.59375,16.34375,-16.75
1635453037024,-0.005859375,-0.62164307,0.14764404,3.5,5.75,-15.703125
1635453037043,0.26098633,-1.4043579,-0.6033325,39.078125,-12.65625,16.796875
1635453037081,0.67089844,-1.8535767,-0.5708618,-96.984375,17.875,3.21875
1635453037119,-0.12060547,-0.7085571,-0.26324463,-11.65625,62.828125,-43.203125
1635453037156,-0.2133789,-1.0217896,0.38446045,58.15625,35.5,17.8125
1635453037193,0.6455078,-1.0745239,-0.32208252,41.546875,-23.671875,42.765625
1635453037250,0.8586426,-0.6411743,-0.31402588,11.640625,-9.15625,-4.828125
1635453037289,0.23242188,-0.71954346,-0.20025635,4.296875,-8.765625,-7.71875
1635453037329,-0.21557617,-0.8501587,-0.23956299,4.484375,-2.359375,-10.40625
1635453037363,-0.068603516,-0.72784424,0.089538574,18.6875,-8.0625,-5.84375
1635453037401,-0.011962891,-0.90875244,0.116882324,4.09375,-15.78125,-13.171875
1635453037439,-0.23364258,-1.0237427,0.0040893555,3.46875,-22.53125,-12.171875
1635453037475,-0.12451172,-0.9343872,-0.0803833,-17.296875,-3.109375,-18.421875
1635453037512,0.0769043,-0.42364502,-0.35699463,-20.921875,-14.625,-19.828125
1635453037550,0.9187012,-0.60821533,-0.57037354,67.53125,7.46875,-0.953125
1635453037588,1.1906738,-2.0,0.965271,-114.953125,21.828125,-59.5
1635453037644,-0.7126465,-1.0999146,-0.44488525,3.59375,-23.734375,-10.703125
1635453037687,-0.3605957,-0.42852783,-0.47979736,35.0,-8.265625,24.5
1635453037720,0.59814453,-0.8401489,0.13739014,-20.875,25.078125,27.078125
1635453037761,0.52441406,-1.3362427,0.51776123,-3.203125,17.578125,-3.703125
1635453037795,2.4414062E-4,-1.2080688,0.059020996,-8.21875,-2.265625,6.71875
1635453037832,-0.040283203,-0.5532837,0.013366699,-8.0625,6.046875,8.28125
1635453037870,0.17138672,-0.39801025,0.094177246,10.34375,14.734375,8.625
1635453037907,0.14111328,-0.7463989,0.18353271,-4.390625,20.15625,-7.609375
1635453037944,-0.05078125,-0.80596924,0.23968506,-5.078125,5.875,-17.203125
1635453037982,-0.16064453,-0.5701294,0.05609131,11.9375,17.9375,-19.34375
1635453038038,0.19433594,-0.7007446,-0.20904541,19.234375,26.96875,-2.59375
1635453038075,0.8769531,-2.0,-0.68048096,14.5,40.796875,72.125
1635453038112,0.14086914,-0.79644775,-0.42974854,-48.9375,-33.3125,-21.359375
1635453038152,-0.17651367,-0.46417236,-0.055236816,2.640625,53.4375,-24.125
1635453038187,0.22314453,-1.217102,0.008483887,29.46875,6.1875,24.140625
1635453038225,0.41479492,-1.098938,-0.15240479,14.96875,-8.9375,-2.53125
1635453038263,0.29736328,-0.87628174,-0.26837158,12.03125,0.3125,-8.109375
1635453038300,-0.10644531,-1.0095825,-0.23199463,-7.8125,-4.96875,-4.46875
1635453038338,-0.083740234,-0.8340454,-0.014221191,3.359375,0.578125,-8.890625
1635453038375,0.06713867,-0.8796997,-0.074279785,16.90625,-1.453125,6.453125
1635453038432,0.041992188,-0.97003174,-0.055236816,3.53125,-0.015625,7.390625
1635453038469,-0.092285156,-0.97442627,-0.018615723,4.328125,2.0625,1.765625
1635453038506,-0.025390625,-1.1289673,0.06341553,-4.578125,-1.15625,-0.203125
1635453038544,-0.1550293,-0.9031372,0.09466553,-21.28125,0.765625,-2.359375
1635453038582,-0.23876953,-0.67266846,-0.03277588,13.125,8.84375,9.25
1635453038619,0.107910156,-0.6921997,-0.1765747,12.140625,1.140625,19.109375
1635453038656,0.453125,-0.42144775,-0.23248291,7.859375,-11.984375,18.0625
1635453038694,0.6645508,-0.67633057,-0.16143799,17.15625,7.890625,12.21875
1635453038731,1.1320801,-1.7468872,0.53900146,-14.1875,-22.03125,-17.140625
1635453038769,-0.16992188,-1.4658813,-0.4368286,-0.1875,-17.09375,-34.0625
1635453038807,-0.09082031,-0.9776001,-0.19952393,10.484375,-18.453125,38.234375
1635453038864,0.32983398,-0.80596924,0.21356201,-12.09375,8.796875,19.71875
1635453038901,0.6020508,-1.288147,0.057800293,-6.09375,5.5,-25.28125
1635453038957,0.41552734,-1.2044067,0.13665771,-23.171875,-2.828125,9.546875
1635453038979,0.28051758,-1.3816528,0.22137451,6.609375,-21.328125,9.078125
1635453039013,0.48486328,-1.763977,-0.04547119,9.265625,-17.234375,-2.953125
1635453039050,0.4104004,-1.1887817,0.24578857,-12.828125,-17.703125,7.671875
1635453039107,0.12182617,-0.8335571,0.1552124,-11.09375,-27.71875,5.609375
1635453039126,-0.1586914,-0.58477783,0.054382324,-2.515625,-8.53125,10.84375
1635453039162,-0.16796875,-0.16778564,0.07537842,34.328125,14.125,13.515625
1635453039200,-0.024658203,0.012634277,0.11175537,30.9375,13.921875,12.328125
1635453039256,0.18334961,-0.1494751,0.13372803,19.015625,6.5,16.03125
1635453039294,0.2133789,-0.3735962,0.10076904,-2.71875,5.125,-0.453125
1635453039332,0.17773438,-0.8809204,-0.40142822,6.9375,12.828125,-9.59375
1635453039369,0.47875977,-1.319397,0.19793701,-18.703125,28.921875,26.671875
1635453039405,0.44506836,-1.7478638,-0.14678955,-87.1875,49.921875,-12.203125
1635453039443,0.55249023,-1.40802,-0.2564087,50.515625,9.421875,12.25
1635453039482,0.8371582,-0.9163208,-0.16485596,50.328125,14.0625,19.15625
1635453039520,0.5083008,-1.0266724,-0.22296143,-26.34375,9.703125,-4.421875
1635453039559,0.15991211,-1.0979614,-0.1560669,14.359375,17.015625,-14.0625
1635453039594,0.15454102,-1.0230103,-0.10333252,38.671875,6.109375,-11.78125
1635453039688,0.17871094,-0.63946533,-0.28253174,0.25,10.171875,-15.25
1635453039691,0.140625,-0.49835205,-0.21783447,10.15625,29.734375,-8.484375
1635453039726,0.1340332,-0.7835083,-0.37408447,14.953125,20.984375,-8.953125
1635453039763,0.3408203,-0.9973755,-0.29327393,12.765625,10.75,-5.546875
1635453039801,0.3059082,-1.0440063,-0.2564087,-5.296875,5.96875,-6.75
1635453039839,0.10986328,-0.8574829,-0.13311768,-10.234375,4.640625,-5.453125
1635453039875,-0.07080078,-0.8274536,-0.054260254,0.0625,-1.421875,0.484375
1635453039914,0.036865234,-0.8101196,-0.12823486,1.765625,-14.796875,9.34375
1635453039950,0.10986328,-0.64630127,-0.010070801,-16.5,-16.703125,5.53125
1635453039989,0.106933594,-0.4360962,-0.012268066,-21.1875,1.765625,-3.3125
1635453040027,0.44555664,-0.06085205,-0.24493408,-3.6875,-14.34375,0.5
1635453040081,1.4763184,-0.6157837,-0.39434814,38.90625,-29.5,17.796875
1635453040119,1.0244141,-2.0,0.276062,-54.5,-14.25,-22.375
1635453040157,-0.30200195,-0.9155884,-0.5923462,-45.578125,1.96875,-10.25
1635453040194,0.09350586,-0.28179932,-0.21295166,16.4375,-45.5625,11.28125
1635453040232,0.57666016,-1.1672974,-0.014709473,26.140625,0.8125,25.546875
1635453040269,0.99072266,-2.0,-0.14459229,-14.421875,9.59375,4.765625
1635453040307,0.45776367,-0.81695557,0.07537842,-36.359375,-13.671875,-20.859375
1635453040344,0.40551758,-0.6646118,0.22235107,16.5625,-28.875,8.75
1635453040382,0.30322266,-0.8484497,0.32269287,-16.296875,-5.9375,-1.453125
1635453040419,0.040283203,-0.9763794,0.21746826,2.25,-15.375,-5.234375
1635453040475,-0.18847656,-0.6716919,0.07904053,33.859375,-5.765625,0.53125
1635453040514,-0.060546875,-0.17047119,0.05316162,28.109375,11.765625,-9.09375
1635453040550,0.032470703,-0.008850098,0.12615967,25.609375,18.5,-32.25
1635453040590,-0.103759766,-0.05987549,-0.07183838,5.0,35.640625,-35.640625
1635453040626,0.27661133,-0.6026001,-0.95758057,32.546875,23.734375,10.890625
1635453040662,0.27148438,-1.4619751,0.68084717,-105.40625,57.078125,20.34375
1635453040700,0.3190918,-2.0,-0.175354,-86.6875,73.21875,-61.90625
1635453040737,0.115234375,-1.5049438,-0.14630127,27.046875,25.515625,5.25
1635453040776,0.7902832,-0.59942627,-0.19317627,75.21875,-9.59375,31.640625
1635453040812,0.6821289,-0.99346924,-0.26202393,-8.859375,10.140625,-7.546875
1635453040869,0.079589844,-1.107727,-0.2300415,-28.53125,20.140625,-24.015625
1635453040907,-0.25073242,-0.86602783,-0.13043213,42.796875,-3.171875,-14.75
1635453040944,0.05859375,-0.46466064,-0.07891846,9.25,-8.078125,-6.234375
1635453040981,0.15112305,-0.35357666,-0.16241455,-5.546875,19.125,-0.25
1635453041021,0.20043945,-0.79229736,-0.030578613,7.609375,0.09375,-3.28125
1635453041057,0.21044922,-1.1550903,-0.038391113,-8.921875,-15.5625,-17.171875
1635453041094,-0.033691406,-1.1311646,-5.493164E-4,-13.40625,-12.6875,-16.859375
1635453041131,-0.3154297,-0.9434204,-0.09698486,-19.96875,-9.546875,-12.796875
1635453041169,-0.37109375,-0.8206177,0.023132324,-13.015625,1.890625,-5.46875
1635453041207,-0.07104492,-0.6716919,-0.12310791,-25.0,2.046875,-14.484375
1635453041244,0.14111328,-0.40899658,-0.5354614,38.984375,33.15625,-3.078125
1635453041300,1.999939,-2.0,0.8678589,58.6875,-31.234375,27.53125
1635453041338,0.49780273,-1.61969,-0.29766846,-51.28125,5.0,-25.3125
1635453041375,-0.24804688,-1.1292114,-0.4282837,0.171875,13.03125,-0.234375
1635453041413,-9.765625E-4,-0.6765747,0.36517334,-6.703125,-6.46875,19.25
1635453041451,0.5515137,-1.0440063,-0.0068969727,22.953125,-5.90625,23.578125
1635453041488,0.44628906,-1.3394165,-0.019836426,-9.59375,0.453125,14.984375
1635453041526,0.22363281,-0.6946411,0.020690918,-8.0625,-16.0,7.6875
1635453041563,0.2512207,-0.42462158,0.05633545,5.984375,-15.421875,11.875
1635453041601,0.23217773,-0.5889282,0.23919678,0.75,-15.234375,11.6875
1635453041637,0.11010742,-0.8640747,0.15325928,0.578125,-30.0625,14.359375
1635453041694,-0.011962891,-0.9067993,0.08148193,5.84375,-8.1875,-1.03125
1635453041732,0.00390625,-0.7498169,0.14422607,18.5,-8.03125,-11.796875
1635453041769,0.0871582,-0.59332275,0.17938232,9.078125,8.203125,-17.40625
1635453041806,-0.12182617,-0.43804932,0.12738037,4.578125,8.9375,-26.71875
1635453041844,0.39526367,-0.31451416,-0.82281494,78.40625,-12.71875,5.671875
1635453041883,0.53027344,-1.4614868,-0.23809814,-232.28125,67.40625,29.8125
1635453041919,0.46875,-2.0,0.2789917,-59.65625,30.25,-51.890625
1635453041956,0.010498047,-1.5647583,-0.19317627,125.109375,15.1875,23.828125
1635453041998,0.7573242,-0.9402466,-0.19439697,-7.578125,8.90625,19.609375
1635453042030,0.65283203,-0.8369751,-0.24176025,10.828125,3.203125,-12.296875
1635453042088,0.16455078,-0.90704346,-0.0010375977,-9.375,5.921875,-14.0
1635453042125,-0.1472168,-0.71661377,-0.1729126,8.65625,-4.265625,-19.671875
1635453042163,0.005126953,-0.53692627,-0.13995361,23.390625,5.671875,-7.765625
1635453042200,0.23535156,-0.63653564,-0.2522583,18.21875,4.359375,3.40625
1635453042238,0.13671875,-0.88287354,-0.21759033,6.609375,12.890625,-7.21875
1635453042276,0.15844727,-1.130188,-0.08843994,4.234375,-3.046875,-13.390625
1635453042313,0.11328125,-1.0444946,-0.024963379,-3.0,4.421875,-2.375
1635453042352,0.00390625,-0.9573364,0.0014038086,-9.640625,0.0,-3.8125
1635453042388,-0.11987305,-0.93463135,0.00970459,-17.65625,-1.5625,-5.25
1635453042425,-0.19628906,-0.7781372,-0.018371582,-0.8125,6.0625,1.65625
1635453042482,0.11352539,-0.67388916,-0.047424316,12.0625,-1.078125,9.5625
1635453042519,0.49243164,-0.7576294,0.016052246,-4.796875,-21.6875,8.015625
1635453042557,0.33642578,-1.2105103,-0.80841064,29.21875,-10.671875,6.390625
1635453042597,1.1589355,-2.0,0.262146,3.890625,-24.75,10.09375
1635453042631,0.2602539,-0.972229,-0.10675049,-12.0,-13.046875,-14.09375
1635453042668,-0.049316406,-0.5064087,-0.37457275,3.921875,-24.125,10.046875
1635453042706,0.12719727,-0.8086548,0.0138549805,-6.703125,-8.125,-0.1875
1635453042745,0.43652344,-1.3633423,0.038757324,8.421875,0.3125,3.796875
1635453042782,0.38964844,-1.1343384,-0.006652832,-19.71875,5.046875,2.859375
1635453042819,0.28100586,-0.6709595,0.14959717,-20.03125,-4.484375,1.171875
1635453042857,0.25878906,-0.61309814,0.07318115,5.625,-8.125,4.546875
1635453042913,0.2368164,-0.9619751,0.11859131,9.671875,-2.59375,3.859375
1635453042950,0.13623047,-0.9758911,0.026794434,-10.546875,-2.359375,1.9375
1635453042988,0.119628906,-0.72442627,0.14544678,-4.0,14.28125,-1.046875
1635453043031,0.043945312,-0.74591064,0.17449951,-3.09375,14.390625,-6.0
1635453043061,0.053466797,-0.7295532,0.097595215,2.390625,0.4375,-9.15625
1635453043100,0.18310547,-0.6790161,0.2453003,2.171875,7.71875,-10.203125
1635453043138,-0.06323242,-0.77423096,0.33953857,-21.125,11.671875,-18.890625
1635453043176,-0.19506836,-0.97003174,-0.3484497,19.296875,16.59375,-9.921875
1635453043212,0.68310547,-2.0,-0.022033691,-152.6875,90.328125,46.21875
1635453043250,0.6074219,-1.6062622,-0.32525635,13.078125,-5.390625,-38.046875
1635453043306,0.16308594,-0.878479,-0.0010375977,1.375,72.34375,-19.46875
1635453043344,0.22729492,-0.82476807,-0.3340454,21.78125,-5.4375,13.375
1635453043382,0.49145508,-0.7139282,-0.16241455,13.1875,30.921875,-0.546875
1635453043420,0.3251953,-0.75177,-0.051574707,5.046875,3.328125,-17.25
1635453043457,0.10498047,-0.64727783,-0.3171997,5.390625,-6.265625,-5.5625
1635453043497,0.014892578,-0.5615845,-0.18511963,8.453125,2.84375,0.84375
1635453043533,0.11279297,-0.74102783,-0.17828369,21.875,0.359375,6.09375
1635453043570,0.22143555,-0.9429321,-0.089416504,20.0,-2.6875,3.25
1635453043607,0.040283203,-1.1426392,0.054626465,-1.8125,-0.34375,-0.828125
1635453043643,-0.17651367,-1.1216431,0.06854248,-10.109375,-1.203125,-5.09375
1635453043700,-0.16137695,-0.8032837,0.057556152,2.359375,-2.421875,4.65625
1635453043756,0.033447266,-0.7998657,0.055114746,4.375,-15.96875,4.5
1635453043775,0.1640625,-0.833313,0.05609131,-2.171875,-17.03125,2.78125
1635453043813,0.22680664,-0.6194458,-0.2210083,7.765625,-21.421875,8.96875
1635453043850,1.0070801,-2.0,-0.4710083,25.53125,-22.78125,17.96875
1635453043888,0.89404297,-1.4888306,0.43060303,-32.59375,-23.78125,-10.40625
1635453043925,-0.15209961,-0.59088135,-0.6572876,2.84375,-19.421875,-13.75
1635453043963,-0.09692383,-0.6174927,-0.3513794,5.203125,-20.25,14.078125
1635453044000,0.40039062,-1.2029419,0.07977295,20.03125,17.1875,18.484375
1635453044039,0.7687988,-1.6997681,0.08929443,-6.5,6.125,-6.078125
1635453044075,0.24511719,-0.8291626,0.06439209,-25.4375,-1.640625,-8.34375
1635453044131,0.15576172,-0.5327759,0.018493652,0.171875,-5.984375,-3.21875
1635453044169,0.16845703,-0.64849854,0.1395874,-5.078125,-4.203125,-7.0
1635453044206,0.18041992,-0.78985596,0.13275146,8.125,-9.203125,2.875
1635453044244,0.14208984,-0.6851196,0.06414795,-3.3125,-5.765625,2.890625
1635453044282,0.055908203,-0.57037354,0.12054443,0.703125,6.671875,-7.296875
1635453044319,0.053710938,-0.65753174,0.1473999,-5.984375,-0.796875,-10.4375
1635453044356,0.07055664,-0.565979,0.2814331,-9.015625,-0.5625,-22.6875
1635453044394,0.5695801,-0.6350708,-0.6826782,70.5,-17.1875,-3.3125
1635453044432,0.020996094,-2.0,-0.7300415,-68.75,16.8125,17.21875
1635453044469,0.54174805,-1.1360474,0.039245605,-72.1875,40.3125,-35.5
1635453044525,0.0061035156,-1.0813599,-0.0335083,75.953125,45.1875,7.625
1635453044562,0.60058594,-1.1060181,-0.348938,11.84375,-4.828125,22.734375
1635453044601,0.4609375,-0.8689575,-0.302063,-6.546875,11.0,-17.34375
1635453044640,0.016845703,-0.7703247,-0.08135986,9.90625,14.671875,-4.546875
1635453044675,-0.049560547,-0.5088501,-0.18487549,3.1875,1.59375,3.875
1635453044712,0.18334961,-0.33868408,-0.04864502,21.625,5.96875,4.046875
1635453044751,0.19799805,-0.57818604,-0.054504395,19.46875,-1.578125,12.265625
1635453044789,0.029052734,-0.84991455,0.046081543,-4.765625,0.953125,4.25
1635453044844,-0.22094727,-0.9710083,0.09661865,-35.390625,1.375,-24.8125
1635453044863,-0.15795898,-0.68951416,0.038757324,0.03125,-0.375,-19.125
1635453044957,0.42700195,-0.82940674,-0.20855713,28.9375,-51.5,7.453125
1635453044960,0.5488281,-1.5671997,-0.7202759,16.84375,-9.484375,25.34375
1635453044995,1.3754883,-2.0,0.39178467,13.34375,11.890625,-10.453125
1635453045030,0.40039062,-1.2356567,-0.206604,-52.328125,-2.84375,-30.9375
1635453045068,-0.19458008,-0.71221924,-0.17803955,-1.296875,-14.5,1.125
1635453045106,-0.12988281,-1.0667114,-0.044006348,15.390625,9.546875,11.515625
1635453045146,0.52124023,-1.4609985,-0.16900635,9.203125,28.640625,4.375
1635453045181,0.5,-1.0039673,0.16986084,-37.0,11.0625,-4.40625
1635453045219,0.29174805,-0.38555908,0.11907959,-15.09375,-8.75,8.59375
1635453045256,0.064941406,-0.4343872,-0.018859863,-0.15625,-0.953125,8.140625
1635453045313,-0.033691406,-0.89190674,0.24798584,-17.84375,17.203125,-2.359375
1635453045350,0.017089844,-0.9414673,0.05731201,-0.15625,4.953125,-3.96875
1635453045387,0.095214844,-0.7583618,-0.089416504,13.734375,7.3125,0.171875
1635453045426,0.20922852,-0.6331177,0.12347412,6.40625,20.71875,-3.9375
1635453045466,0.16064453,-0.56451416,0.21331787,0.5625,6.234375,-6.1875
1635453045502,-0.030517578,-0.29888916,-0.038879395,-1.015625,12.890625,-2.0625
1635453045538,0.17651367,-0.46661377,-0.6428833,19.0,-1.09375,19.578125
1635453045575,1.3059082,-1.8347778,-0.45440674,23.796875,27.1875,66.0
1635453045613,0.8835449,-2.0,-0.018859863,-41.53125,-5.828125,23.984375
1635453045650,0.34106445,-1.3106079,-0.035461426,5.390625,4.328125,-8.53125
1635453045688,0.04638672,-1.0354614,0.010925293,11.46875,17.140625,-1.8125
1635453045744,0.25170898,-1.3079224,0.17962646,55.46875,-24.015625,11.796875
1635453045781,1.0993652,-1.6863403,-0.26080322,23.796875,-10.59375,5.53125
1635453045819,0.19628906,-1.1856079,-0.0647583,-19.328125,-6.921875,-35.46875
1635453045856,-0.58618164,-0.8323364,0.005554199,-21.140625,-8.859375,-12.453125
1635453045894,-0.056884766,-0.47662354,-0.013244629,23.859375,-8.578125,21.296875
1635453045931,0.31958008,-0.36798096,0.19085693,27.5,5.828125,4.921875
1635453045969,0.033203125,-0.581604,-0.0010375977,15.75,-15.921875,-0.453125
1635453046006,-0.17211914,-0.31671143,-0.27838135,0.890625,-29.515625,4.5
1635453046043,0.11816406,-0.23297119,-0.019348145,26.078125,-14.328125,4.796875
1635453046082,1.0075684,-0.12164307,-0.5640259,37.890625,-27.015625,-7.609375
1635453046138,1.5705566,-1.6282349,-0.39678955,14.25,-7.65625,-32.25
1635453046175,0.087890625,-1.628479,-0.13531494,-76.8125,50.953125,-33.1875
1635453046213,0.12011719,-0.7822876,-1.0090942,37.015625,-79.515625,27.125
1635453046251,0.21655273,-0.8140259,0.17694092,-14.421875,52.421875,34.328125
1635453046289,0.44360352,-1.862854,0.19500732,-8.21875,28.609375,4.96875
1635453046327,0.1977539,-1.0974731,-0.300354,-31.546875,16.265625,-8.640625
1635453046363,0.20874023,-0.37872314,-0.016906738,-8.8125,36.265625,7.25
1635453046401,0.30615234,-0.4295044,0.055847168,-1.296875,21.0625,-6.71875
1635453046438,0.26049805,-0.75201416,0.10467529,-26.09375,20.828125,-12.34375
1635453046475,0.1550293,-0.82940674,-0.008361816,-18.140625,12.03125,-9.640625
1635453046531,0.10620117,-0.66729736,0.0060424805,-7.421875,19.890625,-10.6875
1635453046569,0.15771484,-0.6201782,0.055603027,-10.78125,18.09375,-13.78125
1635453046606,0.25268555,-0.77178955,0.20306396,-10.3125,2.046875,-20.921875
1635453046643,0.12182617,-0.8220825,0.13446045,1.609375,-5.875,-15.28125
1635453046681,0.24682617,-0.82403564,0.11981201,-2.890625,3.125,-2.65625
1635453046719,0.68530273,-1.1448364,-0.20074463,-5.875,-10.34375,12.921875
1635453046757,0.3154297,-1.4544067,-0.28912354,-43.359375,8.734375,-12.75
1635453046794,-0.016601562,-1.656311,-0.5466919,-9.203125,58.0625,-23.03125
1635453046833,0.46142578,-1.0881958,0.35369873,-1.71875,30.46875,11.3125
1635453046869,0.8054199,-0.690979,-0.04522705,8.796875,-26.0625,8.0625
1635453046909,0.34204102,-0.9524536,-0.16973877,0.546875,-9.59375,-13.84375
1635453046963,-0.3166504,-1.2461548,-0.22271729,-0.890625,4.828125,-22.984375
1635453047001,-0.03491211,-0.6878052,-0.04864502,19.78125,-1.328125,1.8125
1635453047037,0.36816406,-0.56036377,0.06097412,19.328125,-2.546875,5.109375
1635453047075,0.27734375,-0.7461548,0.0038452148,21.078125,-6.78125,-2.453125
1635453047113,-0.047851562,-0.9793091,-0.08111572,9.390625,-7.109375,-6.421875
1635453047151,-0.14624023,-0.95391846,0.06878662,15.15625,-6.4375,6.734375
1635453047188,0.05029297,-0.92926025,0.1708374,18.75,-15.203125,15.453125
1635453047225,-0.08178711,-0.8928833,0.085876465,-4.4375,-13.015625,6.453125
1635453047263,-0.22680664,-0.76275635,-0.037902832,-8.65625,-11.984375,-1.21875
1635453047300,-0.084472656,-0.38067627,-0.11846924,5.203125,-3.1875,8.015625
1635453047356,0.5996094,0.117126465,-0.5317993,56.9375,2.390625,24.765625
1635453047394,1.999939,-1.4334106,1.0963745,8.953125,-36.3125,16.703125
1635453047450,0.38745117,-2.0,-0.8755493,-10.671875,-7.078125,37.90625
1635453047469,-0.34350586,-0.7046509,-0.3772583,-11.578125,-12.625,21.5625
1635453047509,0.7861328,-0.723938,0.40472412,31.03125,-3.5,37.5
1635453047544,1.3217773,-2.0,-0.31158447,6.09375,-8.859375,35.703125
1635453047582,0.24731445,-1.0105591,-0.06866455,-46.890625,23.140625,-0.84375
1635453047619,0.3425293,-0.47955322,0.16204834,-5.5625,-7.515625,8.734375
1635453047657,0.4765625,-0.76641846,0.12445068,6.34375,1.078125,3.78125
1635453047694,0.35498047,-1.0393677,0.054870605,-4.84375,-2.5,-6.734375
1635453047750,0.21044922,-0.87091064,0.15863037,-0.828125,6.03125,-26.859375
1635453047787,0.17382812,-0.5586548,0.11590576,9.65625,5.453125,-32.515625
1635453047825,0.111083984,-0.5484009,-0.018127441,4.796875,4.71875,-38.40625
1635453047863,-0.036865234,-0.51226807,0.09173584,-6.1875,27.234375,-48.453125
1635453047901,-0.091552734,-0.36480713,-0.10040283,5.765625,34.953125,-50.640625
1635453047939,1.2075195,-0.4578247,-0.90948486,54.265625,-22.328125,-19.703125
1635453047976,0.6166992,-2.0,0.054382324,-111.265625,31.28125,-17.625
1635453048032,-0.3190918,-1.1697388,-0.15582275,-17.765625,24.40625,-61.75
1635453048050,0.22314453,-0.8670044,0.05706787,28.359375,-12.796875,-3.578125
1635453048088,0.6689453,-0.8987427,-0.10089111,3.84375,-8.265625,4.890625
1635453048126,0.15649414,-1.1060181,-0.14727783,0.828125,-12.890625,-19.40625
1635453048182,-0.17651367,-0.9819946,-0.27178955,0.953125,5.21875,-11.9375
1635453048219,0.0041503906,-0.6921997,-0.24542236,19.0,15.671875,-4.359375
1635453048257,0.14379883,-0.68536377,-0.043518066,26.875,10.84375,-1.015625
1635453048293,0.2722168,-0.83184814,-0.07720947,8.28125,9.40625,2.609375
1635453048331,0.103759766,-1.0488892,-0.06427002,7.1875,0.90625,-2.328125
1635453048369,-0.055664062,-1.1924438,-0.18756104,3.203125,5.375,-3.96875
1635453048406,0.009277344,-1.0286255,-0.124572754,4.125,10.921875,1.140625
1635453048444,0.04736328,-0.9973755,-0.09527588,6.21875,19.265625,0.828125
1635453048482,0.03491211,-0.98394775,-0.030578613,1.90625,13.96875,2.046875
1635453048519,-0.032714844,-1.0244751,-0.10797119,3.859375,13.25,1.40625
1635453048575,0.0043945312,-1.0151978,-0.11895752,5.6875,16.140625,6.953125
1635453048613,0.055664062,-0.9365845,-0.121154785,1.09375,14.296875,6.953125
1635453048649,0.048583984,-0.92852783,-0.10772705,2.6875,13.90625,7.6875
1635453048687,0.04638672,-0.96588135,-0.13482666,-2.59375,13.296875,9.90625
1635453048725,0.034423828,-1.0513306,-0.13555908,-6.609375,17.046875,6.3125
1635453048763,0.021484375,-1.0327759,-0.0947876,-9.40625,19.640625,1.390625
1635453048801,0.008544922,-1.0244751,-0.09698486,-7.0,18.84375,2.203125
1635453048841,0.036132812,-1.0149536,-0.13458252,-1.296875,19.0,6.359375
1635453048875,0.11743164,-1.0027466,-0.10626221,-4.21875,18.125,6.546875
1635453048912,0.1538086,-0.9788208,-0.09844971,-3.46875,14.078125,4.65625
1635453048969,0.14941406,-0.9751587,-0.10284424,-5.625,14.0,2.6875
1635453049007,0.13012695,-0.9624634,-0.059631348,-7.515625,11.015625,1.40625
1635453049043,0.111083984,-1.00177,-0.07720947,-8.3125,9.171875,-2.53125
1635453049081,0.07128906,-1.0794067,-0.11578369,-9.296875,9.203125,-4.765625
1635453049120,0.031982422,-1.0037231,-0.10601807,-1.03125,9.8125,-1.03125
1635453049156,0.14111328,-0.94854736,-0.09991455,-4.515625,6.71875,2.40625
1635453049193,0.17871094,-0.975647,-0.065979004,-1.578125,0.453125,1.328125
1635453049231,0.15356445,-1.0342407,-0.07501221,-7.796875,-0.5,0.171875
1635453049268,0.05908203,-1.0049438,-0.038146973,-12.1875,-2.109375,-3.40625
1635453049306,-0.014160156,-0.9783325,-0.062805176,-3.75,-2.625,-4.671875
