# Sensor type: Respeck
# Activity type: Walking at normal speed
# Activity code: 1
# Subject id: s1788488
# Notes: 
timestamp,accel_x,accel_y,accel_z,gyro_x,gyro_y,gyro_z
1635452857812,0.014892578,-0.9961548,0.09661865,2.875,1.515625,-0.234375
1635452857869,-0.017822266,-1.006897,0.058288574,3.078125,3.734375,0.625
1635452857906,0.021972656,-1.0449829,0.08441162,3.75,4.78125,0.8125
1635452857944,0.014892578,-1.0149536,0.0836792,2.828125,6.109375,0.1875
1635452857981,0.013671875,-0.99957275,0.016784668,5.96875,5.125,1.921875
1635452858018,0.09863281,-0.9976196,0.024597168,5.890625,7.84375,3.6875
1635452858058,0.10107422,-1.0054321,0.09710693,1.796875,4.625,0.53125
1635452858113,0.01171875,-0.97052,0.07904053,1.28125,0.078125,-0.0625
1635452858131,0.025146484,-1.0005493,0.054138184,4.78125,-0.765625,2.328125
1635452858168,0.0859375,-1.0239868,0.07879639,1.6875,0.09375,1.078125
1635452858206,0.0390625,-0.9859009,0.09124756,1.828125,-1.40625,0.96875
1635452858263,0.056152344,-0.9951782,0.05218506,4.09375,-1.53125,3.359375
1635452858300,0.111572266,-0.9990845,0.089782715,2.34375,-2.84375,2.28125
1635452858356,0.10229492,-0.9702759,0.08392334,0.5625,-5.34375,1.78125
1635452858376,0.06591797,-1.0088501,0.051696777,1.625,-6.0625,0.71875
1635452858413,0.044433594,-1.0078735,0.082458496,-4.0625,-6.0,-1.078125
1635452858450,0.026855469,-0.9771118,0.005065918,1.0625,-6.625,-0.90625
1635452858488,0.059326172,-0.9607544,0.039978027,3.15625,-1.625,1.25
1635452858525,-7.324219E-4,-0.9463501,0.020935059,6.328125,-5.015625,3.265625
1635452858563,-0.024658203,-1.0339966,-0.0017700195,5.546875,-7.21875,1.6875
1635452858600,-0.05859375,-1.0918579,0.050964355,3.59375,-6.625,-1.546875
1635452858656,-0.06225586,-1.052063,0.081726074,6.46875,-4.96875,0.453125
1635452858694,-0.0126953125,-0.9248657,0.10760498,5.578125,-4.78125,0.5625
1635452858731,-0.0021972656,-0.9470825,0.06854248,9.796875,-9.375,1.015625
1635452858788,-0.026367188,-0.98101807,0.042907715,8.640625,-11.015625,1.4375
1635452858807,-0.009521484,-0.99835205,0.0211792,9.859375,-12.25,0.5
1635452858844,-0.032470703,-1.0120239,0.062927246,4.296875,-13.40625,1.515625
1635452858882,-0.029785156,-0.9702759,0.07171631,4.46875,-15.1875,3.734375
1635452858919,-0.05517578,-1.0042114,0.09661865,-0.109375,-19.59375,1.71875
1635452858956,-0.1743164,-1.1360474,0.047058105,1.0625,-18.890625,-1.28125
1635452858994,-0.20581055,-1.25177,0.14569092,-2.90625,-7.78125,1.296875
1635452859035,-0.2692871,-1.1646118,0.13616943,-3.21875,-14.515625,-4.28125
1635452859088,-0.118652344,-1.2525024,-0.04864502,19.890625,-10.859375,-2.34375
1635452859125,0.19580078,-1.1668091,0.0021362305,2.046875,-20.078125,4.21875
1635452859163,0.36035156,-0.9055786,-0.15631104,3.828125,-12.8125,0.40625
1635452859202,0.32421875,-0.68756104,0.059509277,2.9375,-1.4375,-4.671875
1635452859238,0.3269043,-0.99884033,0.04876709,1.234375,-24.671875,-5.734375
1635452859275,0.0625,-1.2214966,-0.018859863,-2.890625,-5.96875,-10.546875
1635452859313,0.029296875,-1.1758423,-0.017150879,-2.640625,1.640625,3.46875
1635452859350,0.125,-0.8909302,0.11810303,-11.28125,5.515625,1.328125
1635452859387,0.11791992,-0.7949829,0.16278076,-10.015625,-0.5,-1.734375
1635452859428,0.06665039,-0.9475708,0.12371826,-6.875,-1.328125,8.40625
1635452859482,0.055908203,-0.9170532,0.1942749,-20.359375,1.875,2.875
1635452859525,-0.06518555,-0.8201294,0.24066162,-12.46875,7.875,-8.84375
1635452859557,-0.083496094,-0.7456665,0.1642456,-1.734375,11.234375,-3.21875
1635452859594,0.028808594,-0.81500244,0.28363037,-8.859375,18.25,-4.09375
1635452859636,0.08251953,-1.0247192,0.3829956,-10.90625,18.75,-8.5625
1635452859668,0.104003906,-1.25177,0.35394287,0.203125,9.40625,-4.90625
1635452859710,0.12915039,-1.3379517,0.48065186,-12.09375,4.84375,-1.671875
1635452859744,-0.01977539,-1.3513794,0.38690186,-2.59375,-7.109375,-4.40625
1635452859781,0.029785156,-0.9614868,0.16644287,14.53125,2.1875,-1.578125
1635452859819,0.19042969,-0.7683716,0.010681152,15.421875,-2.546875,4.578125
1635452859878,0.32202148,-0.9829712,-0.37774658,15.1875,5.328125,15.40625
1635452859912,0.21313477,-1.2622681,-0.2625122,3.90625,21.984375,2.6875
1635452859950,0.3095703,-1.0073853,0.24017334,-5.453125,2.046875,-8.28125
1635452859989,0.13793945,-0.7407837,0.16766357,1.234375,-17.640625,-9.359375
1635452860026,-0.07788086,-0.74420166,-0.038146973,33.359375,-9.78125,1.375
1635452860063,0.099609375,-0.7776489,-0.03692627,21.15625,-7.5,7.234375
1635452860101,0.19970703,-0.8557739,0.0079956055,16.984375,-20.53125,3.390625
1635452860138,-0.14013672,-1.0220337,-0.014709473,7.8125,-20.3125,-5.109375
1635452860175,-0.21411133,-1.0181274,0.1071167,3.828125,-12.4375,0.8125
1635452860213,-0.07299805,-1.050354,0.17913818,2.234375,-13.6875,4.015625
1635452860251,-0.12548828,-1.0601196,0.08709717,3.09375,-13.34375,-1.34375
1635452860307,-0.17749023,-1.2456665,0.09124756,1.96875,-4.796875,-4.40625
1635452860344,0.11254883,-1.2947388,0.062194824,7.296875,-17.8125,-2.890625
1635452860382,0.09863281,-1.1411743,-0.06524658,-4.34375,-25.546875,-3.5
1635452860419,0.13867188,-0.9546509,-0.22003174,18.484375,-10.90625,-4.8125
1635452860457,0.4255371,-0.8579712,0.11639404,-1.3125,5.875,-7.359375
1635452860494,0.32421875,-1.3501587,0.19476318,-2.6875,-16.203125,-5.609375
1635452860531,-0.09033203,-1.2139282,-0.04058838,-3.578125,-6.09375,-0.6875
1635452860569,-0.05883789,-0.9421997,-0.085510254,-9.609375,8.859375,4.203125
1635452860607,0.0847168,-0.80303955,0.15570068,-15.75,22.4375,4.703125
1635452860644,0.12158203,-0.68951416,0.2609253,-14.484375,15.046875,5.359375
1635452860700,0.014404297,-0.74176025,0.09539795,-7.375,10.578125,1.796875
1635452860738,-0.059570312,-0.8418579,0.030456543,-6.890625,10.0,-0.734375
1635452860779,0.059570312,-0.8274536,0.2999878,-11.109375,35.65625,-7.96875
1635452860814,0.040527344,-0.92803955,0.3986206,-3.796875,20.59375,-14.171875
1635452860850,0.0034179688,-1.1360474,0.230896,-1.375,11.671875,-9.875
1635452860887,0.13134766,-1.3269653,0.42279053,-6.0625,8.71875,3.296875
1635452860925,-0.068847656,-1.1465454,0.22943115,-4.0,-4.234375,-8.390625
1635452860962,0.0793457,-1.2244263,-0.018127441,-2.71875,11.0,4.46875
1635452861000,0.38452148,-0.91485596,-0.036193848,6.265625,10.0,15.171875
1635452861037,0.23071289,-0.9229126,-0.34552002,3.71875,7.5625,9.28125
1635452861132,-0.061767578,-1.2527466,-0.23101807,-4.0625,30.203125,-3.640625
1635452861133,0.24414062,-1.0613403,0.19891357,13.390625,11.453125,0.203125
1635452861168,0.18481445,-0.831604,0.17108154,4.765625,3.265625,-8.890625
1635452861206,-0.0043945312,-0.7263794,0.008728027,14.109375,-6.3125,-2.359375
1635452861244,-0.027832031,-0.70196533,9.1552734E-4,13.984375,-3.4375,2.234375
1635452861283,0.05444336,-0.833313,0.06048584,15.21875,-16.953125,0.484375
1635452861319,-0.10083008,-0.98443604,0.03338623,3.546875,-8.703125,-2.515625
1635452861358,-0.25170898,-1.0303345,0.07366943,5.140625,-6.0,0.65625
1635452861394,-0.16381836,-1.0733032,0.07952881,1.0,-1.390625,2.40625
1635452861431,-0.024169922,-1.218811,0.14349365,-2.90625,-3.96875,-3.328125
1635452861488,-0.19824219,-1.1773071,0.13372803,-3.0625,-3.640625,-9.234375
1635452861525,-0.17138672,-1.1946411,0.06854248,-0.84375,-17.921875,-11.890625
1635452861563,-0.033447266,-1.1130981,-0.10089111,-3.984375,-20.25,-12.0
1635452861600,0.25463867,-0.9182739,-0.0020141602,11.15625,10.359375,2.46875
1635452861637,0.6491699,-0.91070557,0.28851318,-3.296875,-13.171875,-10.15625
1635452861676,0.32910156,-1.40094,0.1539917,0.0625,-19.9375,-15.078125
1635452861713,-0.2902832,-1.3469849,-0.04498291,-5.0,-7.15625,1.046875
1635452861750,-0.15673828,-0.8731079,0.019226074,-8.265625,8.953125,11.078125
1635452861787,0.14282227,-0.6460571,0.18060303,-10.78125,11.5625,11.203125
1635452861863,0.08227539,-0.7085571,0.27337646,-9.28125,9.625,6.328125
1635452861867,-0.037841797,-0.73638916,0.18450928,-7.9375,7.09375,10.578125
1635452861919,-0.043945312,-0.7420044,0.23236084,0.46875,6.640625,-1.25
1635452861957,-0.014404297,-0.8015747,0.29632568,-2.546875,13.71875,-4.359375
1635452862013,-0.0949707,-1.0386353,0.3776245,0.875,15.390625,-5.671875
1635452862032,-0.041992188,-1.3587036,0.21746826,17.5,7.09375,2.1875
1635452862068,0.14648438,-1.2815552,0.5817261,-24.890625,25.0,2.796875
1635452862106,-0.072265625,-1.4614868,0.30267334,5.875,-13.296875,-6.65625
1635452862144,0.017822266,-1.0984497,0.08123779,6.34375,13.34375,5.953125
1635452862181,0.28930664,-0.673645,0.03656006,14.65625,8.109375,9.8125
1635452862219,0.19995117,-0.90875244,-0.37139893,11.375,6.078125,11.96875
1635452862256,0.006591797,-1.1812134,-0.3147583,8.65625,32.734375,2.125
1635452862312,0.2734375,-1.0178833,0.16595459,6.578125,20.0,-2.484375
1635452862351,0.26367188,-0.75567627,0.25579834,4.828125,-4.390625,-8.21875
1635452862388,-0.068847656,-0.7781372,0.022644043,17.171875,-1.609375,-6.984375
1635452862425,-0.17211914,-0.8323364,-0.06744385,17.59375,0.171875,1.578125
1635452862463,0.045654297,-0.86846924,-0.008605957,10.875,-1.5625,1.265625
1635452862500,-0.07055664,-0.9248657,0.045837402,3.328125,-3.25,-3.890625
1635452862537,-0.23364258,-1.0379028,0.09075928,8.28125,-4.4375,0.703125
1635452862575,-0.07910156,-1.1204224,0.10467529,-0.734375,-8.078125,3.75
1635452862613,-0.11401367,-1.1306763,0.12054443,-11.828125,-3.375,-4.859375
1635452862650,-0.28295898,-1.2232056,0.024597168,1.640625,-9.3125,-11.671875
1635452862706,0.078125,-1.3838501,-0.031799316,9.671875,-21.4375,-13.5
1635452862744,0.23339844,-1.0049438,-0.15460205,16.9375,-0.546875,0.125
1635452862783,0.6142578,-0.86383057,0.18963623,-8.15625,-0.84375,-0.984375
1635452862820,0.49316406,-1.3882446,0.22918701,3.359375,-19.828125,-18.046875
1635452862857,-0.16210938,-1.3276978,-0.05303955,-5.25,-16.875,-2.3125
1635452862894,-0.16430664,-0.8284302,-0.06842041,-11.15625,1.3125,16.09375
1635452862941,0.044677734,-0.737854,0.17303467,-6.890625,9.765625,7.34375
1635452862970,0.10644531,-0.7752075,0.24945068,-7.03125,3.5,4.59375
1635452863006,0.032958984,-0.7463989,0.1593628,-9.828125,-5.234375,10.0625
1635452863044,-0.064453125,-0.6616821,0.12957764,-5.59375,11.796875,-0.390625
1635452863082,-0.123291016,-0.7210083,0.340271,-8.671875,17.59375,-8.265625
1635452863141,-0.05517578,-0.97491455,0.1918335,8.015625,21.84375,-2.765625
1635452863175,0.3798828,-1.4915161,0.31488037,11.984375,10.578125,4.65625
1635452863213,0.10180664,-1.2971802,0.5817261,-26.359375,3.5625,-11.4375
1635452863250,-0.2685547,-1.4360962,0.14764404,0.53125,-9.265625,-4.578125
1635452863288,0.11010742,-1.1555786,-0.008850098,4.015625,8.296875,13.875
1635452863325,0.4658203,-0.6885376,-0.07183838,4.21875,1.71875,12.9375
1635452863363,0.16503906,-0.9365845,-0.42803955,4.953125,15.234375,9.5625
1635452863400,0.017822266,-1.2913208,-0.06524658,-2.296875,27.3125,-1.203125
1635452863438,0.38549805,-0.986145,0.25335693,9.875,-0.40625,-2.65625
1635452863474,0.2055664,-0.7144165,0.09857178,5.328125,-9.328125,-10.0625
1635452863532,-0.09741211,-0.69000244,0.003112793,13.046875,-11.40625,-1.90625
1635452863569,-0.13232422,-0.75128174,0.03704834,12.34375,-12.453125,3.296875
1635452863606,-0.049316406,-0.9258423,0.07684326,11.34375,-10.515625,-0.59375
1635452863644,-0.14819336,-0.9458618,0.0099487305,11.1875,-4.484375,-1.0
1635452863681,-0.15991211,-0.92681885,0.11956787,5.0,-2.03125,2.015625
1635452863719,-0.10107422,-1.1055298,0.051208496,4.625,0.046875,2.203125
1635452863756,-0.09375,-1.3828735,0.18255615,-14.484375,0.28125,-9.640625
1635452863794,-0.18457031,-1.3677368,0.109558105,-4.296875,-1.34375,-15.96875
1635452863832,-0.02319336,-1.2254028,-0.018859863,-3.828125,-15.171875,-9.640625
1635452863869,0.21142578,-0.84454346,-0.013244629,9.921875,0.765625,2.125
1635452863925,0.59375,-0.7710571,0.20941162,-3.921875,-6.859375,-4.796875
1635452863963,0.40893555,-1.4834595,0.1954956,5.3125,-16.90625,-23.703125
1635452864001,-0.22875977,-1.4346313,0.0026245117,-7.796875,-1.359375,2.09375
1635452864038,-0.10595703,-0.8140259,-0.0012817383,2.09375,-0.53125,11.671875
1635452864075,0.03515625,-0.57891846,0.14031982,-3.875,11.125,6.65625
1635452864113,-0.022705078,-0.67266846,0.20770264,-2.3125,12.34375,3.8125
1635452864151,-0.06689453,-0.6721802,0.13739014,4.859375,15.875,6.8125
1635452864188,0.064941406,-0.67071533,0.20794678,-2.375,18.671875,4.71875
1635452864225,-0.034423828,-0.85040283,0.2658081,3.140625,16.25,-1.5
1635452864263,-0.13476562,-1.114563,0.21917725,3.78125,20.953125,-5.03125
1635452864302,0.2277832,-1.5149536,0.28875732,12.296875,10.34375,3.3125
1635452864358,0.10913086,-1.2634888,0.4406128,-22.515625,7.640625,-1.046875
1635452864394,-0.15600586,-1.5025024,0.059265137,2.703125,-5.46875,-1.125
1635452864433,0.23999023,-1.0752563,0.050476074,-2.953125,14.390625,11.796875
1635452864473,0.34570312,-0.64801025,-0.13800049,4.375,5.390625,9.421875
1635452864506,0.17675781,-0.9524536,-0.3965454,7.203125,8.4375,5.8125
1635452864543,0.1586914,-1.2417603,0.014099121,4.578125,22.703125,-0.359375
1635452864582,0.31176758,-0.9524536,0.19671631,5.1875,-6.078125,-4.75
1635452864620,0.13085938,-0.7251587,0.04486084,13.375,-6.046875,-5.828125
1635452864656,-0.06982422,-0.7337036,-0.018127441,18.296875,-10.640625,1.125
1635452864694,0.021728516,-0.815979,-0.009338379,16.921875,-10.1875,4.046875
1635452864751,-0.0048828125,-0.8440552,0.039001465,5.546875,-8.40625,-1.375
1635452864788,-0.19433594,-0.8464966,0.019226074,0.140625,-6.90625,-4.3125
1635452864825,-0.2602539,-0.9668579,0.1071167,6.015625,-2.734375,0.796875
1635452864863,-0.15600586,-1.2000122,0.08392334,-1.78125,-6.828125,0.90625
1635452864900,-0.16040039,-1.2683716,0.13201904,-1.3125,8.9375,-3.890625
1635452864938,-0.052978516,-1.34552,0.039001465,1.8125,-6.375,-10.53125
1635452864975,0.16552734,-1.3518677,0.066589355,1.25,-16.390625,-14.0625
1635452865013,0.17382812,-0.9522095,-0.19366455,28.90625,-9.609375,1.875
1635452865050,0.5563965,-0.6885376,0.11395264,-2.359375,-3.0,-1.125
1635452865088,0.4050293,-1.2000122,0.22113037,-1.46875,-23.703125,-15.28125
1635452865144,-0.19213867,-1.444397,-0.017150879,2.046875,-18.921875,2.484375
1635452865182,-0.11669922,-1.0073853,-0.11968994,-6.46875,4.328125,13.046875
1635452865219,0.08911133,-0.769104,0.10394287,-14.8125,18.390625,0.9375
1635452865256,0.053710938,-0.6980591,0.1774292,-8.859375,11.8125,6.5625
1635452865295,-0.0048828125,-0.67510986,0.18719482,-5.375,8.875,8.59375
1635452865331,-0.087402344,-0.6345825,0.18865967,-0.078125,18.25,-0.703125
1635452865370,-0.12646484,-0.78497314,0.19451904,-1.53125,22.1875,-3.484375
1635452865406,0.047607422,-1.0354614,0.20184326,5.515625,27.1875,-2.296875
1635452865444,0.37695312,-1.5015259,0.27581787,5.703125,9.140625,0.4375
1635452865481,0.06201172,-1.3198853,0.34661865,-22.46875,2.921875,-5.453125
1635452865538,-0.046142578,-1.5960083,0.031677246,2.390625,-11.109375,2.6875
1635452865575,0.27172852,-1.0508423,-0.07720947,-11.65625,10.1875,11.78125
1635452865613,0.23510742,-0.522522,-0.16314697,1.578125,7.34375,2.515625
1635452865650,-0.016601562,-1.0335083,-0.32086182,5.96875,20.875,8.296875
1635452865689,0.24609375,-1.2053833,0.0119018555,13.921875,12.359375,11.609375
1635452865725,0.41845703,-0.81573486,0.21502686,-0.9375,5.28125,-7.390625
1635452865763,0.02758789,-0.7036743,0.055358887,8.140625,-6.46875,-10.296875
1635452865800,-0.2824707,-0.8115845,-0.053527832,7.734375,-5.34375,-0.484375
1635452865839,-0.044677734,-0.8513794,0.05731201,11.15625,-5.671875,2.78125
1635452865875,0.037841797,-0.8862915,0.07952881,5.9375,-0.765625,-3.828125
1635452865913,-0.14135742,-0.98028564,0.07269287,4.828125,-3.984375,-3.40625
1635452865969,-0.19604492,-1.039856,0.07635498,-0.625,-5.671875,0.3125
1635452866007,-0.049560547,-1.2219849,0.06976318,-5.5,-2.953125,-6.484375
1635452866044,-0.2055664,-1.2398071,0.07684326,-2.390625,1.59375,-13.328125
1635452866081,-0.061035156,-1.2791138,0.019714355,1.1875,-16.984375,-16.453125
1635452866119,0.15942383,-1.0588989,-0.09283447,0.84375,-12.109375,-9.546875
1635452866157,0.5168457,-0.88653564,0.101257324,-0.390625,11.8125,2.1875
1635452866194,0.59472656,-1.163147,0.2633667,1.640625,-11.796875,-22.671875
1635452866237,-0.03881836,-1.4365845,0.06488037,-4.046875,-1.234375,-3.578125
1635452866268,-0.12109375,-1.0300903,0.032165527,-6.265625,-3.09375,11.75
1635452866306,0.013916016,-0.66363525,0.10076904,-1.453125,7.421875,9.234375
1635452866363,-0.0061035156,-0.7698364,0.2584839,-0.171875,9.4375,5.375
1635452866400,-0.05029297,-0.8867798,0.16912842,0.109375,12.5625,9.4375
1635452866438,0.08129883,-0.6494751,0.1906128,3.03125,10.875,2.828125
1635452866475,0.016357422,-0.5791626,0.32489014,2.515625,10.828125,-6.34375
1635452866513,-0.19140625,-0.8027954,0.24383545,5.65625,11.6875,-3.625
1635452866550,-0.083496094,-1.1973267,0.21160889,14.484375,14.171875,0.65625
1635452866587,0.28442383,-1.7715454,0.34539795,3.03125,1.03125,5.390625
1635452866627,0.018798828,-1.4353638,0.22137451,-7.8125,1.3125,-9.578125
1635452866663,-0.021484375,-1.4590454,0.05316162,-11.421875,7.59375,9.65625
1635452866701,0.34375,-0.7293091,0.06414795,-5.40625,1.671875,12.234375
1635452866794,0.27441406,-0.45513916,-0.085998535,3.546875,4.625,4.953125
1635452866799,0.0029296875,-1.0215454,-0.36749268,14.125,16.09375,7.71875
1635452866831,0.21777344,-1.4419556,0.038757324,22.34375,11.0,3.703125
1635452866869,0.40551758,-0.9324341,0.19989014,4.9375,-16.671875,-7.703125
1635452866908,-0.001953125,-0.69976807,-0.0134887695,7.546875,-8.3125,-9.734375
1635452866945,-0.23535156,-0.7197876,-0.0051879883,14.265625,-9.734375,0.15625
1635452866985,0.0034179688,-0.8040161,0.041931152,15.953125,-12.03125,2.78125
1635452867021,0.012207031,-0.913147,-5.493164E-4,5.71875,-9.3125,0.390625
1635452867056,-0.234375,-0.91851807,0.047790527,4.546875,-7.90625,-0.484375
1635452867093,-0.27514648,-1.0022583,0.08685303,-1.125,-5.65625,1.21875
1635452867131,-0.06665039,-1.2180786,0.0692749,-2.984375,-4.15625,-1.703125
1635452867188,-0.104003906,-1.2590942,0.09539795,-4.0625,8.578125,-5.046875
1635452867226,-0.021240234,-1.3225708,0.026062012,-3.9375,-18.3125,-14.921875
1635452867263,0.07543945,-1.2000122,-0.10772705,7.5625,-19.765625,-11.40625
1635452867301,0.36376953,-0.8760376,-0.06817627,17.21875,2.234375,7.796875
1635452867339,0.5756836,-0.93414307,0.27044678,-7.125,-2.046875,-15.046875
1635452867377,0.14428711,-1.4421997,0.09686279,-5.828125,-17.8125,-12.078125
1635452867413,-0.20483398,-1.1714478,0.010437012,-0.21875,-9.765625,9.796875
1635452867451,-0.016113281,-0.7781372,-0.0010375977,-7.875,5.71875,7.890625
1635452867489,0.037353516,-0.7283325,0.18304443,-6.34375,13.171875,2.28125
1635452867526,-0.0021972656,-0.7996216,0.1774292,-0.28125,6.15625,9.515625
1635452867581,0.06591797,-0.6860962,0.16815186,-3.90625,6.140625,6.6875
1635452867619,-0.026611328,-0.6851196,0.2514038,-2.78125,13.078125,-2.859375
1635452867655,-0.20239258,-0.82403564,0.17230225,4.5,17.328125,-2.5
1635452867694,-0.057617188,-1.1323853,0.14642334,4.0625,22.421875,-1.796875
1635452867732,0.42578125,-1.5276489,0.432312,1.578125,12.5625,4.1875
1635452867769,-0.015380859,-1.1814575,0.32440186,-22.9375,-0.1875,-16.21875
1635452867806,-0.2607422,-1.5586548,-0.01763916,0.5,-3.328125,-2.546875
1635452867843,0.4868164,-0.9985962,0.0053100586,-1.578125,12.828125,18.21875
1635452867882,0.53930664,-0.6367798,-0.12652588,1.96875,-3.375,11.640625
1635452867919,0.0026855469,-0.925354,-0.38946533,6.5,9.703125,3.71875
1635452867975,0.0,-1.2700806,-0.059143066,13.03125,14.640625,0.359375
1635452868013,0.45239258,-0.9324341,0.23529053,7.890625,-3.640625,1.5625
1635452868049,0.21362305,-0.6851196,0.09906006,8.890625,-15.71875,-6.453125
1635452868087,-0.21557617,-0.79644775,-0.0256958,19.296875,-18.984375,-0.828125
1635452868125,-0.1640625,-0.91778564,0.0021362305,18.28125,-16.4375,1.1875
1635452868162,-0.04711914,-0.90509033,-0.0068969727,10.1875,-7.9375,-0.1875
1635452868200,-0.21459961,-0.8892212,0.046081543,3.9375,-1.875,-3.390625
1635452868237,-0.21777344,-0.9776001,0.049743652,1.90625,-5.359375,0.546875
1635452868275,-0.07104492,-1.1487427,0.055847168,-6.5625,4.71875,-1.40625
1635452868312,-0.11987305,-1.2505493,0.05731201,0.421875,6.515625,-7.265625
1635452868349,0.045654297,-1.364563,-0.019592285,-6.59375,-12.25,-14.15625
1635452868406,0.123046875,-1.2832642,-0.039611816,-0.65625,-15.296875,-12.875
1635452868445,0.26489258,-0.9805298,-0.09161377,20.09375,3.890625,1.703125
1635452868483,0.48510742,-0.75787354,0.18084717,-6.328125,2.0,-6.34375
1635452868519,0.22680664,-1.1663208,0.11639404,-2.296875,-18.3125,-11.75
1635452868556,-0.16967773,-1.2974243,0.029968262,4.703125,-5.359375,7.09375
1635452868594,-0.018554688,-0.88946533,0.002380371,-9.21875,9.65625,11.5625
1635452868632,0.038085938,-0.6651001,0.12689209,-11.46875,16.90625,-1.015625
1635452868669,0.0026855469,-0.8255005,0.13861084,-3.28125,8.578125,4.578125
1635452868706,0.07055664,-0.7944946,0.21380615,-8.015625,10.859375,6.4375
1635452868744,-0.0036621094,-0.6709595,0.23919678,-3.78125,17.390625,-2.171875
1635452868800,-0.08325195,-0.8303833,0.17718506,2.90625,13.375,3.703125
1635452868838,-0.031982422,-1.0496216,0.21234131,1.359375,19.296875,-0.828125
1635452868875,0.2006836,-1.3562622,0.24261475,12.921875,8.65625,-0.9375
1635452868913,0.14697266,-1.3359985,0.44989014,-29.328125,8.046875,-3.25
1635452868969,-0.22753906,-1.3984985,0.10882568,3.171875,-10.5,-6.84375
1635452868988,0.20410156,-1.2039185,-0.042297363,-1.0,6.21875,11.65625
1635452869026,0.47045898,-0.7192993,-0.11651611,-2.390625,0.484375,15.140625
1635452869063,0.17749023,-0.8218384,-0.3164673,-0.46875,11.484375,4.703125
1635452869102,-0.039794922,-1.1397095,-0.06842041,-2.578125,23.625,-1.875
1635452869139,0.3791504,-1.0342407,0.2567749,11.546875,-0.875,2.125
1635452869195,0.2775879,-0.7612915,0.117614746,0.40625,-18.171875,-8.65625
1635452869232,-0.16088867,-0.71710205,-0.011047363,15.390625,-13.359375,-4.71875
1635452869270,-0.23535156,-0.850647,0.04046631,24.59375,-7.234375,1.875
1635452869307,-0.03125,-0.9729614,0.09320068,16.15625,-12.1875,0.296875
1635452869344,-0.12060547,-0.9307251,0.018249512,8.8125,-6.796875,-4.015625
1635452869382,-0.2866211,-0.9187622,0.039733887,0.140625,-0.46875,-3.046875
1635452869437,-0.16870117,-1.0003052,0.030700684,4.25,5.203125,-0.875
1635452869457,0.021972656,-1.1882935,0.14447021,-5.328125,4.046875,-4.390625
1635452869494,-0.07299805,-1.3233032,0.25408936,-11.625,-7.265625,-14.90625
1635452869532,-0.049804688,-1.2576294,-0.026672363,-0.65625,-26.328125,-17.21875
1635452869588,0.030517578,-1.0046997,-0.2041626,21.421875,-13.953125,-1.25
1635452869625,0.56689453,-0.90093994,0.05609131,5.40625,6.125,6.234375
1635452869663,0.62890625,-1.2410278,0.30145264,-2.0,-8.640625,-26.609375
1635452869700,-0.092041016,-1.3062134,0.0040893555,-7.015625,-14.15625,-4.0
1635452869738,-0.28271484,-0.96759033,-0.07208252,-1.09375,-5.15625,18.140625
1635452869775,0.028320312,-0.7781372,0.08880615,1.25,6.078125,12.484375
1635452869813,0.17016602,-0.75787354,0.25628662,-8.796875,6.0,3.390625
1635452869851,-0.0126953125,-0.8335571,0.21185303,-5.484375,2.6875,8.359375
1635452869888,-0.08227539,-0.65631104,0.10296631,6.234375,4.859375,7.09375
1635452869925,-0.083496094,-0.6831665,0.2218628,-1.609375,12.96875,0.859375
1635452869962,-0.08691406,-0.93927,0.17694092,9.84375,21.109375,-0.875
1635452870019,0.12011719,-1.3191528,0.22625732,12.296875,18.953125,-5.046875
1635452870055,0.26000977,-1.5723267,0.43328857,-22.453125,7.828125,-1.0
1635452870094,-0.26367188,-1.2637329,0.059265137,10.84375,-5.640625,-6.171875
1635452870136,0.0703125,-1.3828735,0.043395996,-0.03125,18.328125,7.796875
1635452870170,0.5571289,-0.9143677,-0.004699707,-2.75,0.296875,12.109375
1635452870206,0.24951172,-0.6331177,-0.4421997,-3.328125,3.765625,8.234375
1635452870243,-0.038085938,-0.94781494,-0.19805908,-10.140625,26.9375,-2.703125
1635452870281,0.23999023,-1.0969849,0.13470459,11.296875,8.734375,1.359375
1635452870319,0.29052734,-0.975647,0.085632324,8.640625,-4.875,-3.890625
1635452870356,0.099609375,-0.7617798,-0.014221191,3.953125,-9.859375,-3.953125
1635452870413,-0.06665039,-0.706604,-0.01373291,6.78125,-11.53125,0.890625
1635452870451,-0.01953125,-0.9229126,0.043395996,4.71875,-12.03125,-1.625
1635452870488,-0.14501953,-1.0046997,0.039245605,9.421875,-9.71875,-6.4375
1635452870526,-0.26611328,-0.9065552,0.089538574,5.421875,0.734375,-1.078125
1635452870563,-0.16503906,-0.9187622,0.11981201,2.46875,-0.484375,0.359375
1635452870601,-0.018798828,-1.1421509,0.07684326,7.765625,-1.625,-1.546875
1635452870639,-0.08911133,-1.3130493,0.11566162,6.5625,0.8125,0.484375
1635452870675,-0.01171875,-1.2600708,0.1539917,-10.46875,-14.03125,-10.953125
1635452870713,-0.13330078,-1.1558228,-0.06500244,-3.265625,-17.765625,-13.375
1635452870750,0.14233398,-0.9338989,-0.25933838,18.265625,-5.40625,13.96875
1635452870844,0.670166,-0.7925415,0.13983154,-4.375,-1.625,-4.34375
1635452870847,0.5222168,-1.3289185,0.24554443,-2.765625,-21.640625,-21.875
1635452870881,-0.24829102,-1.3731079,-0.06964111,3.78125,-15.203125,3.1875
1635452870924,-0.25219727,-0.96466064,-0.1326294,-6.65625,3.140625,8.953125
1635452870957,0.10473633,-0.7359009,0.15740967,-13.078125,12.34375,7.796875
1635452870994,0.14379883,-0.7058716,0.24749756,-7.0625,5.265625,3.546875
1635452871030,-0.044189453,-0.7630005,0.12982178,-1.703125,3.484375,4.171875
1635452871068,-0.15551758,-0.68585205,0.18060303,-4.96875,16.90625,-3.046875
1635452871106,-0.13720703,-0.7283325,0.16815186,10.6875,18.796875,-0.84375
1635452871144,-0.03149414,-1.0025024,0.1864624,1.921875,28.4375,-7.203125
1635452871181,0.2319336,-1.3440552,0.22698975,19.59375,11.515625,-1.453125
1635452871238,0.2775879,-1.4053345,0.5187378,-39.171875,5.96875,3.234375
1635452871313,-0.24194336,-1.5806274,0.13641357,8.109375,-18.578125,-7.875
1635452871317,0.045166016,-1.1704712,0.04534912,0.8125,4.953125,8.25
1635452871351,0.37036133,-0.6345825,0.06561279,-4.609375,-1.078125,4.734375
1635452871388,0.16015625,-0.59820557,-0.25054932,9.09375,7.1875,6.484375
1635452871425,-0.09790039,-1.190979,-0.46881104,10.0625,16.703125,8.71875
1635452871463,0.2163086,-1.2590942,0.028503418,8.421875,17.125,5.703125
1635452871501,0.3564453,-0.82647705,0.23968506,0.5625,0.5625,-8.5
1635452871538,0.044189453,-0.6856079,0.11810303,11.78125,-2.296875,-6.046875
1635452871575,-0.24780273,-0.8128052,0.001159668,12.453125,-8.9375,1.0625
1635452871631,-0.11645508,-0.9138794,-0.00592041,16.96875,-6.21875,0.78125
1635452871669,-0.05908203,-0.9014282,-0.018371582,10.671875,3.0,0.515625
1635452871707,-0.16723633,-0.9673462,0.055358887,3.4375,-1.34375,-1.53125
1635452871744,-0.11791992,-1.1008911,0.039733887,0.390625,-7.515625,-2.71875
1635452871781,-0.07714844,-1.2512817,0.09539795,-9.28125,3.984375,-5.328125
1635452871819,-0.26098633,-1.2598267,0.039245605,-8.984375,-1.796875,-8.734375
1635452871856,-0.118896484,-1.2803345,-0.050598145,-2.28125,-14.625,-18.8125
1635452871894,-0.026367188,-0.96661377,-0.18341064,13.8125,-2.78125,-5.921875
1635452871932,0.5751953,-0.8401489,-0.011291504,1.03125,15.5,5.421875
1635452871970,0.67407227,-1.1860962,0.42840576,-0.15625,0.875,-20.765625
1635452872025,-0.046142578,-1.362854,0.051208496,3.828125,-14.484375,-5.671875
1635452872063,-0.19458008,-0.99298096,-0.07354736,-2.21875,-2.296875,8.296875
1635452872100,0.08618164,-0.7300415,0.015563965,1.734375,8.8125,8.46875
1635452872140,0.011230469,-0.6819458,0.21331787,-4.1875,10.921875,0.671875
1635452872176,-0.123291016,-0.7280884,0.081970215,-1.09375,7.9375,8.421875
1635452872213,0.080078125,-0.6897583,0.08538818,-0.3125,7.609375,11.40625
1635452872250,0.11645508,-0.9065552,0.32269287,7.671875,10.390625,4.890625
1635452872288,-0.048583984,-1.1165161,0.32244873,1.609375,5.546875,-4.578125
1635452872325,-0.24487305,-1.1785278,0.09075928,14.40625,-1.484375,-0.703125
1635452872363,0.16064453,-1.4407349,0.28997803,0.109375,8.203125,13.96875
1635452872400,-0.01977539,-1.1438599,0.33221436,-23.625,11.046875,-12.65625
1635452872456,-0.1538086,-1.4107056,0.013122559,-1.71875,-2.421875,1.78125
1635452872494,0.5654297,-0.9898071,-0.14727783,3.78125,7.921875,17.5
1635452872531,0.5107422,-0.6970825,-0.14483643,-1.875,2.734375,4.234375
1635452872569,-0.06347656,-0.8897095,-0.32940674,-2.1875,1.671875,-1.078125
1635452872607,-0.10839844,-1.163147,-0.08087158,10.078125,18.21875,-0.203125
1635452872644,0.30444336,-0.9841919,0.13470459,10.03125,5.75,8.078125
1635452872681,0.2607422,-0.74835205,0.10443115,3.21875,-10.53125,-0.703125
1635452872719,-0.018310547,-0.77056885,-0.0037231445,10.625,-7.59375,-3.6875
1635452872757,-0.0925293,-0.9241333,-0.013244629,13.359375,-10.359375,0.25
1635452872813,-0.06567383,-0.93341064,0.10858154,6.78125,-7.90625,-0.0625
1635452872851,-0.15917969,-0.8670044,0.04534912,5.328125,-7.546875,-1.375
1635452872887,-0.20117188,-0.90704346,0.113464355,-0.15625,-2.53125,0.859375
1635452872925,-0.18676758,-1.1965942,0.07904053,2.265625,-8.703125,-3.265625
1635452872962,-0.16137695,-1.2879028,-0.03643799,2.0625,5.140625,-3.8125
1635452873000,-0.042236328,-1.3716431,0.02532959,-6.28125,1.1875,-12.484375
1635452873037,0.15527344,-1.2737427,0.035339355,-13.484375,-9.578125,-15.90625
1635452873075,0.19360352,-0.96343994,-0.051330566,15.0625,1.328125,-0.28125
1635452873113,0.49316406,-0.7649536,0.09051514,1.671875,1.15625,-3.015625
1635452873151,0.41503906,-1.0598755,0.16253662,0.78125,-10.421875,-14.53125
1635452873189,-0.06640625,-1.3543091,-0.0010375977,-1.046875,-9.0,0.359375
1635452873244,-0.083984375,-1.0903931,0.04876709,1.890625,3.234375,13.015625
1635452873282,0.06225586,-0.7229614,0.101501465,-7.25,6.609375,5.59375
1635452873319,-0.035888672,-0.7258911,0.20159912,-3.734375,9.5625,1.671875
1635452873357,-0.041259766,-0.80010986,0.11859131,0.828125,8.328125,7.828125
1635452873394,-0.028564453,-0.70196533,0.10491943,-1.140625,11.265625,-0.453125
1635452873431,-0.07324219,-0.73101807,0.24310303,-7.625,29.109375,-4.1875
1635452873469,-0.05078125,-0.98272705,0.25238037,10.171875,26.875,-1.640625
1635452873506,0.28979492,-1.380188,0.25335693,17.8125,-1.171875,2.875
1635452873545,0.2697754,-1.4629517,0.4220581,-33.21875,4.53125,-4.046875
1635452873582,-0.36010742,-1.2822876,0.12689209,7.296875,-16.25,-12.53125
1635452873637,0.015380859,-1.2852173,-0.089904785,-0.734375,0.765625,6.6875
1635452873674,0.5253906,-0.7185669,-0.05596924,-6.84375,12.03125,6.34375
1635452873712,0.29370117,-0.7908325,-0.2786255,7.078125,7.265625,8.78125
1635452873750,-0.09277344,-1.2410278,-0.37017822,7.421875,20.109375,5.515625
1635452873788,0.29614258,-1.0134888,0.094177246,8.28125,7.09375,0.65625
1635452873826,0.29589844,-0.9273071,0.2514038,3.015625,-7.859375,-9.109375
1635452873862,-0.068603516,-0.8064575,0.03265381,9.390625,-12.28125,-4.734375
1635452873901,-0.19311523,-0.7588501,-6.1035156E-5,16.90625,-11.4375,0.421875
1635452873938,-0.068847656,-0.7918091,0.0026245117,13.78125,-2.90625,2.515625
1635452873976,-0.07714844,-0.90582275,-0.05303955,12.796875,-5.765625,1.25
1635452874013,-0.11254883,-0.9458618,0.09881592,7.609375,-6.328125,1.96875
1635452874069,-0.09448242,-1.0567017,0.07928467,-4.15625,-10.03125,2.171875
1635452874106,-0.19433594,-1.2024536,0.05682373,-11.734375,1.734375,-6.921875
1635452874144,-0.21972656,-1.2964478,0.1239624,-5.53125,1.546875,-6.21875
1635452874182,0.095458984,-1.4082642,-5.493164E-4,0.4375,-22.46875,-11.3125
1635452874219,0.11694336,-1.0847778,-0.101623535,12.9375,-10.625,-3.875
1635452874256,0.36914062,-0.78497314,-0.15411377,14.015625,1.0625,4.46875
1635452874296,0.545166,-0.881897,0.23699951,-4.8125,6.296875,-11.421875
1635452874334,0.14257812,-1.3755493,0.121520996,-5.796875,-19.171875,-6.765625
1635452874369,-0.22363281,-1.2537231,-0.026672363,6.484375,-2.84375,9.46875
1635452874406,-0.035888672,-0.835022,-0.011047363,-4.109375,11.828125,9.71875
1635452874466,0.0871582,-0.8008423,0.16619873,-6.5,12.328125,6.140625
1635452874500,0.034423828,-0.7449341,0.21209717,-8.125,7.265625,6.6875
1635452874539,-0.040283203,-0.6838989,0.16815186,1.5625,6.5625,7.453125
1635452874576,-0.006591797,-0.76763916,0.11907959,-1.671875,5.671875,2.453125
1635452874613,-0.063964844,-0.81329346,0.24578857,-1.765625,20.671875,-10.1875
1635452874650,-0.0625,-1.0003052,0.16986084,18.09375,4.140625,-0.609375
1635452874687,0.27148438,-1.5430298,0.27801514,11.65625,4.53125,8.9375
1635452874726,0.024902344,-1.3999634,0.38226318,-22.96875,2.328125,-5.953125
1635452874763,-0.31176758,-1.2971802,0.038513184,-7.734375,0.71875,-9.0
1635452874856,0.19628906,-0.98565674,0.008972168,-1.8125,21.546875,11.484375
1635452874860,0.6882324,-0.7918091,-0.023986816,-0.71875,4.40625,10.625
1635452874894,0.2565918,-0.92315674,-0.42730713,-0.34375,4.1875,2.03125
1635452874932,-0.044921875,-1.1741333,-0.159729,0.640625,28.984375,-3.46875
1635452874970,0.37719727,-0.9612427,0.15350342,8.359375,2.0,0.734375
1635452875007,0.30371094,-0.7944946,0.12225342,0.015625,-4.578125,-8.5
1635452875043,-0.107910156,-0.76153564,0.031433105,0.703125,-14.109375,-10.625
1635452875081,-0.20019531,-0.81622314,0.012634277,9.578125,-13.078125,-2.75
1635452875119,-0.103271484,-0.83135986,0.066589355,11.734375,-7.0625,2.515625
1635452875156,-0.13623047,-0.9224243,0.07342529,8.84375,-3.578125,-0.078125
1635452875212,-0.08129883,-0.97540283,0.1449585,9.078125,-4.21875,3.765625
1635452875232,-0.099121094,-1.0857544,0.08416748,-1.625,-1.671875,-1.109375
1635452875287,-0.19335938,-1.2783813,0.109558105,-9.390625,-1.9375,-4.546875
1635452875325,-0.22387695,-1.2559204,0.14251709,-1.296875,0.875,-3.3125
1635452875363,0.03540039,-1.3294067,0.10809326,5.171875,-6.171875,-10.34375
1635452875401,0.15625,-1.0010376,-0.10675049,9.203125,-10.640625,-2.5625
1635452875438,0.43969727,-0.8423462,-0.14581299,12.1875,1.3125,3.828125
1635452875476,0.57958984,-1.038147,0.3571167,-2.265625,1.234375,-16.703125
1635452875513,0.21850586,-1.3897095,0.07147217,-4.59375,-15.859375,-8.765625
1635452875550,-0.29956055,-1.2366333,-0.038879395,-1.8125,-2.546875,0.328125
1635452875589,-0.118652344,-0.9067993,-0.0010375977,-6.96875,7.75,8.703125
1635452875625,0.10620117,-0.70147705,0.15740967,-6.40625,9.234375,5.3125
1635452875681,0.033203125,-0.76031494,0.17059326,-7.078125,12.78125,4.359375
1635452875724,-0.0546875,-0.6951294,0.12030029,0.15625,12.234375,3.078125
1635452875757,0.028320312,-0.6255493,0.19866943,-2.890625,17.40625,-1.875
1635452875794,-0.07519531,-0.7485962,0.23236084,2.171875,23.4375,-6.234375
1635452875832,-0.13476562,-0.923645,0.20819092,9.734375,18.765625,-6.59375
1635452875871,0.21386719,-1.4319458,0.20355225,23.828125,12.578125,-5.21875
1635452875907,0.15258789,-1.5049438,0.5036011,-35.234375,9.171875,-2.0
1635452875944,-0.2783203,-1.392395,0.1408081,2.8125,-11.125,-3.21875
1635452875982,0.014404297,-1.305481,0.05682373,-9.703125,10.125,8.59375
1635452876019,0.48120117,-0.8477173,-0.035949707,2.125,-5.4375,6.84375
1635452876095,0.41870117,-0.7312622,-0.3423462,0.375,-3.3125,12.921875
1635452876113,0.19165039,-1.0403442,-0.40753174,7.328125,3.96875,0.640625
1635452876150,0.2241211,-1.2944946,0.06781006,-9.21875,8.984375,-13.5
1635452876189,0.10986328,-1.0015259,0.16522217,-2.890625,-7.90625,-6.03125
1635452876226,-0.052978516,-0.7901001,-0.16558838,18.84375,-11.109375,6.421875
1635452876263,0.10546875,-0.78082275,-0.07867432,18.234375,-6.296875,16.203125
1635452876302,0.28125,-1.0842896,0.09466553,9.265625,-16.078125,-0.109375
1635452876338,-0.040283203,-1.0559692,0.036315918,3.09375,-20.125,-6.265625
1635452876375,-0.2788086,-0.67510986,-0.10430908,9.5625,-19.296875,12.578125
1635452876413,0.119384766,-0.75372314,-0.06011963,7.84375,-9.15625,8.828125
1635452876450,0.4013672,-1.1309204,-0.09576416,4.375,-9.453125,0.21875
1635452876506,0.2421875,-1.0708618,0.17059326,-24.78125,-9.8125,-14.6875
1635452876546,-0.14672852,-0.84942627,0.22528076,-14.03125,-7.828125,-13.921875
1635452876585,-0.14575195,-1.029602,0.049987793,7.140625,-5.109375,-3.0
1635452876619,0.18383789,-1.1287231,0.0836792,0.21875,15.40625,0.71875
1635452876695,0.2932129,-1.0733032,0.1161499,3.0,6.453125,2.5
1635452876698,0.20532227,-1.0564575,0.011169434,1.5625,16.578125,0.6875
1635452876731,0.20336914,-0.9585571,0.15570068,-5.234375,16.109375,3.3125
1635452876770,0.18383789,-0.911438,0.08074951,8.640625,3.828125,3.421875
1635452876806,0.19482422,-0.92926025,0.09539795,-0.3125,7.921875,0.09375
1635452876844,0.09375,-0.92022705,0.086364746,3.75,3.453125,-1.65625
1635452876900,0.13476562,-1.1211548,0.06878662,4.75,1.765625,0.171875
1635452876938,0.1303711,-0.9907837,0.09539795,2.28125,1.5625,2.96875
1635452876976,0.057373047,-1.071106,0.046813965,6.609375,2.640625,-3.8125
1635452877013,0.10083008,-1.1184692,0.12957764,0.015625,4.4375,-1.671875
1635452877049,0.1262207,-0.83258057,0.10638428,2.828125,-0.8125,7.84375
1635452877087,0.095703125,-0.84161377,0.03289795,3.21875,1.796875,-0.484375
