# Sensor type: Respeck
# Activity type: Walking at normal speed
# Activity code: 1
# Subject id: s2048692
# Notes: 
timestamp,accel_x,accel_y,accel_z,gyro_x,gyro_y,gyro_z
1635457915309,0.08105469,-0.9710083,0.18035889,4.0625,0.234375,-2.59375
1635457915346,0.024658203,-0.9258423,0.18597412,4.890625,7.03125,-3.796875
1635457915380,-0.040039062,-0.9788208,0.1954956,7.265625,12.40625,1.265625
1635457915418,0.08227539,-1.0891724,0.20770264,3.3125,1.828125,3.453125
1635457915456,0.09863281,-1.0674438,0.24090576,8.3125,3.765625,-2.546875
1635457915493,0.04345703,-0.9714966,0.24993896,6.8125,1.546875,-3.40625
1635457915550,0.039794922,-0.93170166,0.24041748,5.421875,-6.75,0.46875
1635457915586,-0.02319336,-0.9837036,0.20648193,5.25,-2.734375,-2.0625
1635457915625,-0.039794922,-0.9898071,0.19598389,6.78125,-2.53125,-3.140625
1635457915664,-0.052978516,-0.9898071,0.22943115,2.6875,-3.65625,0.390625
1635457915699,-0.084472656,-0.9470825,0.26312256,0.1875,-1.78125,-0.4375
1635457915738,-0.07763672,-0.9546509,0.2929077,3.96875,1.265625,0.671875
1635457915775,0.037353516,-0.9553833,0.25335693,3.359375,-4.25,3.578125
1635457915812,0.028808594,-0.95269775,0.262146,-1.421875,-8.109375,4.953125
1635457915850,-0.043701172,-0.96881104,0.3131714,-1.046875,-9.21875,4.171875
1635457915887,-0.13476562,-0.99298096,0.3241577,-1.203125,-2.875,3.0
1635457915925,-0.03857422,-1.0991821,0.28704834,3.015625,-5.203125,2.421875
1635457915982,0.064208984,-1.2283325,0.35028076,1.5,0.140625,-2.359375
1635457916020,-0.032470703,-1.350647,0.30316162,7.0625,9.5625,-14.3125
1635457916056,0.03564453,-1.2817993,0.019958496,4.5625,16.046875,-14.5
1635457916094,0.24707031,-0.9734497,-0.10040283,-4.21875,2.53125,3.546875
1635457916131,0.2861328,-0.62384033,0.027038574,-21.71875,-8.765625,7.359375
1635457916169,-0.036132812,-0.8508911,0.18450928,-10.765625,4.3125,-5.265625
1635457916207,-0.14355469,-1.2962036,0.07366943,5.09375,14.5625,-2.953125
1635457916244,0.31225586,-1.1011353,0.14056396,-7.140625,8.296875,7.515625
1635457916281,0.34521484,-0.88116455,0.23406982,-11.28125,5.75,4.84375
1635457916320,0.05053711,-0.8569946,0.2477417,-10.25,7.71875,2.859375
1635457916374,-0.083984375,-0.8850708,0.25579834,-4.015625,10.515625,7.234375
1635457916411,0.051757812,-0.9031372,0.23895264,-4.6875,17.21875,6.984375
1635457916450,0.1328125,-0.8623657,0.3180542,-4.15625,21.25,-0.1875
1635457916489,0.088134766,-0.8242798,0.34881592,2.375,21.421875,-5.65625
1635457916524,0.025390625,-0.83380127,0.32244873,0.296875,20.828125,-4.421875
1635457916562,0.14868164,-0.8731079,0.3710327,2.78125,15.046875,-3.546875
1635457916600,0.18896484,-0.9373169,0.40057373,-0.6875,10.46875,-7.3125
1635457916639,0.08862305,-0.96539307,0.3607788,4.125,8.140625,-7.140625
1635457916678,0.021728516,-0.9854126,0.40740967,0.953125,5.640625,-1.1875
1635457916713,-0.026855469,-0.9102173,0.49993896,-2.109375,11.765625,-0.671875
1635457916769,0.09033203,-1.114563,0.41082764,5.625,2.71875,4.09375
1635457916807,0.45947266,-1.5418091,0.21234131,7.53125,-17.734375,22.296875
1635457916844,0.4465332,-1.5269165,0.30438232,-19.4375,-13.828125,23.71875
1635457916881,0.0043945312,-0.7581177,0.13690186,-27.453125,-14.046875,-7.609375
1635457916918,-0.122802734,-0.60943604,0.09124756,-0.734375,15.078125,-13.40625
1635457916956,0.2705078,-0.94317627,-0.054748535,13.703125,4.65625,1.375
1635457916994,0.4296875,-0.97442627,0.05633545,1.671875,-3.0625,2.5625
1635457917031,0.18334961,-0.91070557,0.2748413,9.296875,-9.515625,0.71875
1635457917070,-0.12646484,-1.0952759,0.18328857,8.203125,-1.703125,-9.875
1635457917108,-0.07470703,-0.98150635,0.29315186,10.71875,4.703125,-8.53125
1635457917144,0.2565918,-0.85235596,0.21575928,15.953125,2.5,-0.203125
1635457917200,0.25805664,-0.8826294,0.18914795,13.359375,-8.9375,-3.984375
1635457917238,0.029785156,-0.9793091,0.20233154,13.359375,-19.828125,-4.96875
1635457917275,-0.064453125,-0.89801025,0.27020264,12.3125,-17.703125,1.359375
1635457917319,0.010253906,-0.8652954,0.30999756,12.921875,-21.109375,7.765625
1635457917351,0.005859375,-0.99053955,0.29071045,6.296875,-20.78125,5.109375
1635457917388,-0.03857422,-0.9968872,0.25531006,4.09375,-12.671875,1.859375
1635457917424,-0.04272461,-0.8892212,0.19769287,-2.890625,-11.71875,2.59375
1635457917463,0.026611328,-0.8394165,0.3690796,9.375,-7.71875,4.03125
1635457917505,0.1484375,-1.1621704,0.49871826,3.171875,-21.03125,1.078125
1635457917540,-0.087646484,-1.21344,0.42913818,-7.828125,-25.0,-2.890625
1635457917594,-0.38549805,-1.3496704,0.40423584,-0.53125,7.96875,-12.46875
1635457917631,-0.13647461,-1.3569946,0.20404053,4.3125,17.453125,-31.421875
1635457917669,0.4099121,-1.1611938,-0.09454346,18.140625,18.953125,-21.078125
1635457917705,0.70458984,-0.8574829,-0.19805908,-2.6875,-16.546875,8.21875
1635457917744,0.1550293,-0.7390747,0.16864014,-30.328125,-7.890625,2.46875
1635457917784,-0.3815918,-0.94317627,0.23187256,6.640625,7.15625,-9.875
1635457917819,-0.026367188,-1.1387329,-0.007385254,18.90625,11.796875,10.171875
1635457917856,0.4729004,-0.9741821,0.24163818,-14.453125,4.84375,12.234375
1635457917894,0.22680664,-0.7815552,0.31097412,-6.09375,0.671875,2.4375
1635457917931,-0.12915039,-0.9421997,0.30169678,3.125,8.390625,4.234375
1635457917988,-0.119384766,-0.9673462,0.21966553,1.921875,14.21875,11.0625
1635457918026,0.09692383,-0.8635864,0.23309326,-4.953125,21.921875,7.765625
1635457918066,0.1352539,-0.80841064,0.2999878,1.296875,27.484375,-3.375
1635457918102,0.11328125,-0.86383057,0.28851318,1.5625,20.1875,-2.46875
1635457918138,0.1484375,-0.90704346,0.36590576,-6.453125,16.765625,-2.90625
1635457918175,0.08496094,-0.86138916,0.4003296,-1.96875,18.3125,-8.578125
1635457918214,0.119384766,-0.9209595,0.37225342,5.734375,6.890625,-4.0
1635457918251,0.04638672,-1.1277466,0.5429077,-3.296875,10.28125,4.40625
1635457918287,-0.11303711,-1.107727,0.526062,-11.09375,6.953125,-3.0625
1635457918325,0.16699219,-1.2371216,0.2838745,-6.25,-6.875,3.3125
1635457918363,0.623291,-1.5151978,0.11956787,-1.6875,-10.390625,25.265625
1635457918421,0.2927246,-0.9710083,-0.1338501,-35.34375,5.9375,12.15625
1635457918457,-0.075927734,-0.78009033,0.035095215,-2.765625,3.0625,-11.875
1635457918495,0.0031738281,-1.0183716,0.29364014,8.375,0.203125,-13.328125
1635457918531,0.28173828,-0.9607544,0.10809326,12.65625,9.59375,-3.53125
1635457918569,0.36914062,-0.77667236,0.19866943,21.0,-9.921875,-1.3125
1635457918606,0.046875,-0.8718872,0.21990967,9.59375,-6.03125,-6.484375
1635457918644,-0.21264648,-0.9234009,0.19354248,19.890625,-7.703125,-5.46875
1635457918682,-0.030761719,-0.9651489,0.2514038,24.953125,-9.328125,3.1875
1635457918718,0.16918945,-0.90875244,0.25482178,15.0625,-9.984375,5.140625
1635457918756,0.1328125,-0.85650635,0.25457764,12.421875,-10.921875,3.515625
1635457918812,-0.016113281,-0.91485596,0.27313232,4.546875,-15.8125,5.625
1635457918851,-0.037841797,-0.9817505,0.27191162,-0.34375,-18.953125,5.359375
1635457918888,-0.11206055,-0.88653564,0.30511475,-4.265625,-6.34375,1.890625
1635457918926,-0.16625977,-0.9578247,0.30413818,6.328125,5.703125,-0.671875
1635457918963,0.19262695,-1.3164673,0.43792725,-2.171875,-12.703125,-12.65625
1635457919000,0.09765625,-1.2366333,0.50286865,-20.15625,-20.046875,-9.75
1635457919038,-0.2783203,-1.1572876,0.38446045,-8.6875,-6.03125,-9.65625
1635457919077,-0.06640625,-1.2593384,-0.08013916,9.125,-7.078125,-26.609375
1635457919113,0.47265625,-1.0435181,-0.13555908,14.796875,7.109375,-17.40625
1635457919151,0.42504883,-0.989563,0.13739014,-10.90625,-5.0,5.0625
1635457919207,0.03930664,-0.93463135,0.21966553,-11.359375,-7.390625,5.546875
1635457919244,-0.07055664,-1.0606079,0.1293335,14.75,3.453125,0.546875
1635457919281,-7.324219E-4,-0.93463135,0.15863037,1.328125,12.78125,7.25
1635457919318,0.15234375,-0.91534424,0.24212646,-0.953125,11.125,14.21875
1635457919360,0.16992188,-0.8735962,0.30828857,-3.0625,10.734375,9.328125
1635457919395,0.014160156,-0.8496704,0.24676514,4.515625,20.859375,7.109375
1635457919431,0.0012207031,-0.84820557,0.3209839,0.625,15.140625,6.5
1635457919469,0.06591797,-0.81036377,0.3324585,6.46875,19.21875,3.90625
1635457919507,0.061035156,-0.85406494,0.2909546,6.203125,22.71875,-1.671875
1635457919545,0.048583984,-0.8831177,0.33319092,1.34375,23.453125,-6.046875
1635457919581,0.123046875,-0.8792114,0.34368896,-0.125,18.640625,-5.828125
1635457919640,0.19799805,-0.9907837,0.4093628,2.21875,12.859375,0.234375
1635457919675,0.11376953,-1.1177368,0.5253296,-6.015625,11.4375,4.578125
1635457919712,-0.24853516,-1.0996704,0.56536865,-14.625,16.734375,-6.390625
1635457919752,0.15307617,-1.3418579,0.25482178,-0.03125,-10.09375,8.0
1635457919788,0.7182617,-1.6299438,0.070495605,-8.515625,-8.1875,31.734375
1635457919824,0.3466797,-0.8464966,-0.07745361,-44.21875,10.4375,5.515625
1635457919863,-0.0107421875,-0.831604,0.062438965,7.25,11.984375,-12.8125
1635457919901,0.06298828,-1.0591431,0.090270996,7.046875,-1.125,-7.40625
1635457919938,0.32861328,-0.91192627,0.09295654,2.546875,14.71875,-4.234375
1635457919976,0.31469727,-0.7437134,0.20794678,12.25,-7.515625,-3.359375
1635457920031,-0.010986328,-0.8272095,0.29144287,7.78125,-2.359375,-6.0625
1635457920069,-0.06982422,-0.93585205,0.2411499,24.171875,-8.828125,-4.546875
1635457920107,0.16894531,-1.0147095,0.22357178,19.90625,-9.84375,-3.078125
1635457920144,0.1616211,-0.88067627,0.27996826,8.359375,-13.984375,-5.140625
1635457920181,0.0024414062,-0.78790283,0.2802124,8.828125,-15.34375,1.640625
1635457920219,0.017333984,-0.8579712,0.28704834,-0.15625,-23.765625,8.71875
1635457920256,-0.011474609,-0.9470825,0.31658936,-2.796875,-26.3125,7.5625
1635457920295,-0.13867188,-0.87945557,0.21502686,-4.453125,-9.359375,2.546875
1635457920331,-0.109375,-0.92193604,0.39520264,16.015625,-4.9375,3.21875
1635457920371,0.35083008,-1.2764282,0.5499878,5.765625,-18.625,-6.5625
1635457920426,0.19628906,-1.2476196,0.4923706,-11.140625,-17.875,-7.828125
1635457920464,-0.49658203,-1.3467407,0.3912964,-9.265625,3.265625,-16.140625
1635457920501,-0.15136719,-1.1741333,-0.043273926,9.484375,-0.25,-23.171875
1635457920539,0.6101074,-0.9668579,-0.19854736,14.296875,5.734375,-16.84375
1635457920575,0.59594727,-1.0886841,0.16864014,-15.515625,-4.15625,2.046875
1635457920613,-0.021484375,-0.8274536,0.24945068,-13.0625,-11.671875,0.734375
1635457920652,-0.18554688,-1.0269165,0.08709717,25.265625,4.09375,3.671875
1635457920688,0.064453125,-1.0032349,0.22235107,-1.1875,4.609375,10.515625
1635457920724,0.17602539,-0.8569946,0.28216553,0.171875,15.671875,8.484375
1635457920762,0.080322266,-0.8076782,0.29364014,3.40625,10.0625,8.84375
1635457920800,0.014892578,-0.8352661,0.31365967,13.3125,12.890625,10.625
1635457920857,0.018066406,-0.8521118,0.28948975,4.453125,12.484375,9.40625
1635457920894,0.076660156,-0.85235596,0.30340576,7.859375,22.671875,3.578125
1635457920951,0.084472656,-0.8584595,0.31097412,3.046875,24.375,-3.765625
1635457920969,0.12719727,-0.86724854,0.3517456,2.40625,15.03125,-5.359375
1635457921005,0.07055664,-0.956604,0.36932373,-2.6875,12.796875,-4.875
1635457921063,0.1574707,-1.1292114,0.44989014,-3.640625,7.875,1.765625
1635457921081,0.07763672,-1.1724243,0.58465576,-20.453125,10.359375,-3.546875
1635457921119,0.07104492,-1.2786255,0.2555542,-6.28125,-8.9375,1.4375
1635457921155,0.64746094,-1.7957153,-0.14630127,2.890625,-22.625,33.171875
1635457921194,0.39331055,-0.8118286,-0.057922363,-59.515625,-4.109375,6.546875
1635457921250,-0.13916016,-0.6489868,0.29901123,-0.703125,10.703125,-20.609375
1635457921287,-0.1850586,-1.020813,0.12664795,15.421875,-0.140625,-11.5
1635457921325,0.2705078,-1.0708618,0.001159668,10.5625,12.765625,0.703125
1635457921362,0.41796875,-0.75250244,0.24798584,9.5625,0.328125,-6.390625
1635457921406,0.018066406,-0.8206177,0.230896,6.671875,-1.25,-9.65625
1635457921437,-0.234375,-0.8994751,0.23284912,19.484375,0.359375,-6.5
1635457921475,0.076171875,-0.9800415,0.22479248,18.015625,-3.421875,-0.8125
1635457921512,0.24023438,-0.9026489,0.24725342,13.890625,-3.796875,0.703125
1635457921550,0.12524414,-0.8369751,0.27581787,8.859375,-16.203125,2.96875
1635457921588,-0.013671875,-0.9336548,0.30316162,2.765625,-25.765625,6.09375
1635457921645,-0.14746094,-0.92559814,0.34100342,1.078125,-25.796875,5.921875
1635457921681,-0.13745117,-0.9397583,0.30096436,3.640625,-8.46875,3.546875
1635457921719,-0.11035156,-1.0913696,0.32806396,7.78125,-3.015625,-4.1875
1635457921759,0.010253906,-1.343811,0.57855225,-6.390625,-4.6875,-14.015625
1635457921795,-0.056152344,-1.0471802,0.6010132,-9.578125,-12.625,-4.3125
1635457921832,-0.2006836,-1.2261353,0.12591553,-0.34375,10.78125,-17.375
1635457921869,0.21850586,-1.2620239,-0.26641846,13.59375,1.796875,-28.828125
1635457921906,0.63720703,-1.0234985,0.039489746,-6.640625,0.359375,-2.96875
1635457921944,0.18676758,-0.7764282,0.33465576,-27.421875,-9.515625,1.859375
1635457921981,-0.0769043,-1.0327759,0.101745605,17.296875,0.1875,5.65625
1635457922038,-0.10424805,-1.1682739,0.1083374,-0.5,6.71875,7.203125
1635457922075,0.01171875,-0.8569946,0.28607178,-4.234375,16.15625,9.546875
1635457922113,0.13061523,-0.73028564,0.31463623,3.078125,12.875,14.6875
1635457922151,0.16748047,-0.772522,0.3180542,11.6875,10.65625,12.875
1635457922190,0.04663086,-0.89312744,0.28607178,7.671875,11.484375,4.25
1635457922224,-0.01977539,-0.8779907,0.31854248,6.296875,19.5,1.703125
1635457922264,0.018554688,-0.78326416,0.33563232,4.625,24.71875,-2.515625
1635457922300,0.047851562,-0.8657837,0.36273193,-0.671875,24.171875,-7.25
1635457922339,-0.084472656,-0.878479,0.42523193,-10.8125,30.4375,-11.3125
1635457922374,0.14404297,-1.1956177,0.38787842,9.984375,24.5625,-3.140625
1635457922413,0.2758789,-1.3096313,0.63323975,-25.1875,12.390625,2.5625
1635457922469,0.115722656,-1.2459106,0.32000732,-11.0,-4.9375,5.875
1635457922506,0.43139648,-1.600647,0.0072631836,0.21875,-23.09375,33.96875
1635457922544,0.28198242,-0.8562622,0.024353027,-47.6875,-3.15625,13.671875
1635457922581,0.026123047,-0.800354,0.16864014,10.0625,9.234375,-10.125
1635457922620,-0.06542969,-1.1055298,0.042663574,10.140625,6.40625,-8.34375
1635457922657,0.21386719,-0.93951416,0.03704834,5.0,12.484375,-1.203125
1635457922694,0.3071289,-0.69195557,0.29437256,15.046875,10.953125,-5.015625
1635457922737,0.0546875,-0.8135376,0.22894287,10.03125,2.0,-7.53125
1635457922769,-0.080322266,-0.9168091,0.2584839,25.125,-2.453125,-4.359375
1635457922809,0.16357422,-1.0335083,0.20892334,24.46875,-7.765625,-1.59375
1635457922863,0.3005371,-0.85162354,0.17547607,15.59375,-15.859375,-1.734375
1635457922900,0.12524414,-0.81207275,0.2506714,11.125,-24.421875,2.359375
1635457922938,-0.03955078,-0.9434204,0.246521,-2.640625,-36.96875,7.75
1635457922976,-0.1538086,-0.9729614,0.33294678,-7.375,-28.828125,6.6875
1635457923013,-0.2529297,-0.85601807,0.3847046,-6.90625,-5.15625,1.46875
1635457923051,-0.068603516,-1.1626587,0.38226318,20.09375,-2.09375,-6.453125
1635457923088,0.19116211,-1.4121704,0.52142334,-7.984375,-17.125,-8.71875
1635457923126,-0.080322266,-1.107727,0.5018921,-15.546875,-7.765625,-8.15625
1635457923163,-0.24291992,-1.185852,0.027526855,9.609375,7.921875,-25.6875
1635457923200,0.29760742,-1.1365356,-0.2786255,16.78125,5.578125,-22.96875
1635457923239,0.545166,-1.0933228,0.05731201,-9.859375,10.484375,-4.5625
1635457923293,0.21508789,-0.8779907,0.26776123,-11.578125,-4.265625,3.9375
1635457923331,-0.068359375,-0.97857666,0.08709717,13.40625,7.046875,1.875
1635457923369,-0.076660156,-1.0542603,0.15203857,-0.5625,11.890625,5.21875
1635457923407,0.045410156,-0.94903564,0.27703857,-6.953125,17.828125,9.625
1635457923443,0.1706543,-0.82891846,0.25823975,-0.765625,18.328125,9.40625
1635457923482,0.16992188,-0.77178955,0.27703857,-0.453125,18.4375,4.71875
1635457923518,0.024169922,-0.8245239,0.3180542,-1.953125,17.875,4.328125
1635457923556,-0.013427734,-0.8428345,0.3287964,-0.40625,20.21875,2.921875
1635457923596,0.021484375,-0.8286743,0.37445068,3.84375,26.796875,-3.328125
1635457923631,0.07080078,-0.8789673,0.416687,-2.65625,24.953125,-7.25
1635457923688,0.076416016,-0.835022,0.39593506,-5.25,17.921875,-9.765625
1635457923726,0.099853516,-1.1887817,0.5211792,5.9375,17.4375,1.375
1635457923764,0.026123047,-1.2788696,0.6408081,-21.09375,15.046875,1.421875
1635457923801,0.008300781,-1.258606,0.2880249,-2.78125,-3.34375,-0.75
1635457923840,0.46728516,-1.362854,0.059265137,-1.15625,-4.71875,23.75
1635457923875,0.62475586,-1.0332642,-0.09454346,-20.265625,-0.828125,16.890625
1635457923913,0.16821289,-0.8591919,-0.0029907227,-3.671875,-7.265625,-9.046875
1635457923951,-0.18334961,-0.98394775,0.29022217,-2.421875,-0.125,-12.328125
1635457923989,0.11767578,-0.92681885,0.015563965,20.90625,0.609375,-0.375
1635457924025,0.39013672,-0.7937622,0.20941162,11.03125,-0.6875,-5.34375
1635457924082,0.16699219,-0.7839966,0.32147217,9.375,-4.15625,-7.71875
1635457924119,-0.09399414,-0.87823486,0.260437,26.546875,-12.28125,-5.125
1635457924157,-0.009521484,-1.081604,0.18255615,26.0625,-16.296875,-3.15625
1635457924194,0.095947266,-0.92510986,0.23944092,16.15625,-11.53125,-1.171875
1635457924233,0.052978516,-0.80352783,0.25604248,11.421875,-11.3125,0.921875
1635457924269,0.018310547,-0.8699341,0.2880249,6.140625,-14.515625,4.546875
1635457924305,-0.032226562,-0.90093994,0.31610107,-4.25,-20.40625,4.875
1635457924343,-0.15698242,-0.8909302,0.2736206,-2.09375,-13.328125,5.53125
1635457924381,-0.26635742,-0.9866333,0.37957764,9.09375,1.390625,2.75
1635457924419,0.15136719,-1.4580688,0.48187256,12.8125,-3.84375,-12.65625
1635457924461,0.12841797,-1.350647,0.49310303,-19.5625,-16.21875,-11.625
1635457924515,-0.1928711,-1.1585083,0.22137451,-4.21875,5.078125,-12.953125
1635457924550,0.10522461,-1.1902466,-0.17559814,16.703125,-3.296875,-24.296875
1635457924588,0.57373047,-0.84942627,-0.20367432,-0.3125,-10.140625,-3.296875
1635457924644,0.2475586,-0.79229736,0.324646,-15.453125,-3.3125,4.53125
1635457924663,-0.09887695,-1.1714478,0.14471436,6.703125,-9.5,5.21875
1635457924699,-0.04296875,-1.1619263,0.085632324,5.046875,6.625,9.1875
1635457924737,0.095703125,-0.881897,0.30877686,-7.109375,11.65625,6.9375
1635457924776,0.10424805,-0.72906494,0.34246826,-0.5625,12.015625,9.625
1635457924813,0.09423828,-0.78204346,0.2616577,5.5625,12.234375,12.03125
1635457924850,0.06225586,-0.8743286,0.23944092,2.296875,13.0625,7.1875
1635457924906,0.046142578,-0.8464966,0.3300171,2.1875,12.921875,4.203125
1635457924943,0.044433594,-0.79278564,0.3998413,-0.1875,18.75,-2.28125
1635457924981,0.078125,-0.8428345,0.3776245,-0.296875,19.25,-7.515625
1635457925020,0.038085938,-0.9019165,0.3973999,-2.4375,17.453125,-3.71875
1635457925057,0.12939453,-1.2349243,0.47113037,4.90625,7.640625,9.3125
1635457925094,0.07861328,-1.2180786,0.6618042,-19.46875,8.390625,-2.015625
1635457925152,0.0036621094,-1.1707153,0.39691162,-4.703125,-4.15625,-0.8125
1635457925169,0.4753418,-1.4033813,-0.0049438477,-3.21875,-17.078125,28.1875
1635457925244,0.51660156,-1.1289673,-0.14459229,-37.15625,4.59375,23.828125
1635457925248,0.123046875,-0.8167114,0.13519287,-2.953125,1.40625,-10.125
1635457925338,-0.12060547,-0.8965454,0.19354248,6.625,14.46875,-21.9375
1635457925341,0.20751953,-0.9512329,0.053649902,17.296875,0.8125,-3.046875
1635457925376,0.4169922,-0.77789307,0.27191162,9.109375,-0.9375,-3.328125
1635457925412,0.095214844,-0.83966064,0.27508545,9.109375,-5.484375,-7.453125
1635457925451,-0.19848633,-0.9495239,0.18865967,21.203125,-6.359375,-6.9375
1635457925488,0.07055664,-0.9968872,0.21624756,21.84375,-11.265625,-0.765625
1635457925526,0.22045898,-0.7996216,0.25335693,6.375,-7.828125,-0.234375
1635457925563,0.10913086,-0.8069458,0.2682495,12.671875,-15.953125,5.125
1635457925600,0.016113281,-0.93048096,0.31243896,1.671875,-28.390625,9.34375
1635457925637,-0.0026855469,-0.93878174,0.35443115,1.5,-29.015625,5.15625
1635457925676,-0.22045898,-0.8875122,0.39959717,1.671875,-13.203125,-0.40625
1635457925732,-0.07763672,-1.3196411,0.48895264,17.828125,-16.953125,-8.734375
1635457925769,0.091796875,-1.4026489,0.59002686,-11.328125,-30.859375,-13.640625
1635457925806,-0.17211914,-1.1323853,0.2538452,2.1875,8.859375,-16.671875
1635457925844,0.12597656,-1.3391724,-0.22735596,2.765625,-13.671875,-24.9375
1635457925881,0.5576172,-0.94122314,-0.17047119,2.078125,-8.625,-6.3125
1635457925919,0.29589844,-0.848938,0.23919678,-10.28125,2.453125,3.078125
1635457925956,0.018310547,-0.9607544,0.19500732,-1.203125,-13.015625,4.5625
1635457925996,0.06713867,-1.0205688,0.15618896,11.890625,-2.078125,14.015625
1635457926034,0.041748047,-0.927063,0.31072998,-8.59375,-1.75,7.5625
1635457926069,-0.07080078,-0.7998657,0.33050537,4.5,2.359375,5.375
1635457926126,0.029296875,-0.83428955,0.3131714,5.671875,11.75,10.78125
1635457926163,0.083740234,-0.864563,0.2802124,2.890625,13.375,7.078125
1635457926200,0.063964844,-0.864563,0.32489014,5.1875,14.625,3.875
1635457926237,0.07397461,-0.8430786,0.36444092,-1.75,14.71875,0.484375
1635457926275,0.123535156,-0.7329712,0.42694092,-1.4375,17.015625,-6.5625
1635457926315,0.10205078,-0.88238525,0.3361206,6.40625,4.78125,0.109375
1635457926351,0.11767578,-1.2481079,0.49310303,-2.640625,-1.3125,12.09375
1635457926388,-0.17480469,-1.1350708,0.63983154,-15.984375,13.078125,-6.15625
1635457926426,-0.14868164,-1.1519165,0.3319702,-5.671875,6.5,-9.046875
1635457926463,0.54833984,-1.3860474,0.019226074,1.109375,-8.078125,17.21875
1635457926556,0.71655273,-1.2954712,-0.16412354,-29.328125,12.640625,22.734375
1635457926562,0.12426758,-0.8533325,0.06414795,-11.8125,-5.125,-14.65625
1635457926594,-0.23486328,-0.8530884,0.37786865,-2.015625,6.515625,-21.140625
1635457926632,0.079833984,-0.9146118,0.113708496,23.46875,7.53125,-4.03125
1635457926669,0.39331055,-0.81622314,0.12640381,13.5625,-3.125,-4.953125
1635457926706,0.15600586,-0.7608032,0.29412842,9.5,-11.578125,-5.1875
1635457926744,-0.15527344,-0.9277954,0.24041748,19.34375,-18.703125,-5.859375
1635457926785,-0.07006836,-1.0320435,0.24920654,19.390625,-19.109375,-1.265625
1635457926819,0.06567383,-0.8652954,0.33319092,8.453125,-10.046875,3.390625
1635457926894,0.047607422,-0.786438,0.32537842,9.375,-15.515625,3.78125
1635457926913,-0.10473633,-0.8740845,0.30096436,-1.765625,-16.796875,3.828125
1635457926952,-0.12133789,-0.93463135,0.31488037,6.359375,-10.421875,4.078125
1635457926988,-0.11206055,-0.9668579,0.2850952,-0.015625,4.84375,1.046875
1635457927029,0.17456055,-1.1729126,0.58221436,7.59375,-2.484375,-5.21875
1635457927067,0.12182617,-1.2461548,0.6276245,-23.5,-23.609375,-5.390625
1635457927101,-0.32836914,-1.2390747,0.30438232,3.640625,4.5625,-3.4375
1635457927137,-0.008544922,-1.4627075,-0.18927002,2.28125,-5.609375,-22.25
1635457927175,0.5656738,-1.0686646,-0.20343018,5.40625,0.59375,-12.40625
1635457927213,0.10888672,-0.7288208,0.24969482,-25.21875,6.90625,-3.65625
1635457927250,-0.21142578,-0.83477783,0.2008667,8.546875,2.828125,10.125
1635457927287,-0.084228516,-1.2937622,0.073913574,12.4375,8.546875,9.03125
1635457927344,0.12719727,-1.0159302,0.2616577,-5.0625,25.34375,2.625
1635457927382,0.12963867,-0.70806885,0.26727295,-5.90625,18.15625,9.84375
1635457927419,0.09667969,-0.6831665,0.3727417,-1.671875,13.421875,12.0625
1635457927456,0.008544922,-0.89312744,0.3295288,8.765625,12.375,4.296875
1635457927494,-0.02319336,-0.9373169,0.3053589,6.0,10.171875,0.75
1635457927532,-0.005859375,-0.7764282,0.36175537,7.109375,18.859375,-1.0
1635457927569,0.07348633,-0.8272095,0.36224365,1.71875,13.375,-5.890625
1635457927608,-0.07446289,-0.8855591,0.46502686,-4.71875,21.609375,-7.875
1635457927644,-0.010498047,-1.1038208,0.36419678,5.9375,20.671875,4.734375
1635457927684,0.23950195,-1.2471313,0.5270386,-11.09375,9.671875,6.109375
1635457927738,0.26660156,-1.4666138,0.30975342,-5.75,-5.046875,2.53125
1635457927775,0.3659668,-1.7068481,0.03778076,-13.640625,-10.21875,27.75
1635457927813,0.03881836,-0.73931885,0.019958496,-45.921875,7.171875,-3.8125
1635457927851,-0.03125,-0.60723877,0.0770874,7.375,24.421875,-12.40625
1635457927889,0.12719727,-1.0657349,0.039001465,13.3125,9.34375,-7.125
1635457927925,0.24975586,-1.0288696,0.17572021,6.03125,16.4375,-6.90625
1635457927963,0.18408203,-0.83477783,0.2411499,15.671875,6.875,-4.0
1635457928001,0.034423828,-0.8792114,0.22259521,15.171875,2.609375,-8.765625
1635457928038,-0.014404297,-0.80133057,0.28729248,18.875,-3.28125,-3.609375
1635457928075,0.05517578,-0.92022705,0.22503662,25.578125,-3.90625,2.15625
1635457928132,0.09057617,-0.9541626,0.16644287,19.421875,-16.40625,4.046875
1635457928171,0.043945312,-0.90460205,0.25775146,8.296875,-16.71875,3.1875
1635457928207,-0.033447266,-0.9151001,0.29974365,-5.390625,-15.796875,1.484375
1635457928244,-0.08666992,-0.80303955,0.4003296,-2.265625,-14.203125,0.21875
1635457928284,-0.21875,-0.88482666,0.3209839,4.4375,4.53125,2.625
1635457928319,0.052734375,-1.416565,0.36102295,9.078125,-7.3125,-3.59375
1635457928356,0.18017578,-1.5134888,0.6588745,-20.96875,-19.6875,-12.03125
1635457928394,-0.24487305,-1.05719,0.23675537,-7.8125,13.765625,-16.3125
1635457928434,0.08105469,-1.2713013,-0.28302002,8.84375,2.59375,-27.5
1635457928469,0.55566406,-0.956604,-0.14093018,-8.359375,-12.96875,-12.21875
1635457928506,0.19067383,-0.74664307,0.37957764,-16.78125,8.109375,-2.421875
1635457928563,-4.8828125E-4,-1.0574341,0.15887451,11.078125,-11.96875,5.328125
1635457928600,0.05493164,-1.1795044,0.038269043,7.625,1.140625,4.890625
1635457928637,0.01586914,-0.8970337,0.26190186,-5.296875,13.109375,7.9375
1635457928674,0.06323242,-0.7263794,0.2994995,-2.765625,3.65625,13.71875
1635457928712,0.08911133,-0.8052368,0.32806396,7.046875,12.546875,10.0625
1635457928749,0.018554688,-0.9522095,0.2658081,1.34375,14.15625,4.953125
1635457928787,-0.009277344,-0.8567505,0.309021,-1.796875,20.875,0.765625
1635457928825,0.044677734,-0.74713135,0.35247803,-0.453125,24.9375,-5.3125
1635457928863,0.1472168,-0.79400635,0.40057373,0.359375,18.234375,-9.640625
1635457928902,0.09008789,-0.83380127,0.40325928,4.640625,11.71875,-6.59375
1635457928957,0.059814453,-1.1570435,0.3678589,8.96875,8.546875,7.859375
1635457928995,0.12109375,-1.2295532,0.6088257,-4.59375,2.984375,5.625
1635457929031,0.025634766,-1.1726685,0.53778076,-9.109375,1.84375,-4.5
1635457929069,0.29785156,-1.3245239,0.2008667,-1.9375,-14.796875,19.921875
1635457929107,0.42260742,-1.357727,0.10003662,-24.34375,-12.546875,25.703125
1635457929145,0.08666992,-0.7402954,-0.06427002,-22.984375,-6.640625,6.09375
1635457929181,-0.068359375,-0.78570557,0.054138184,4.4375,18.15625,-10.265625
1635457929220,0.033203125,-1.0247192,0.1515503,10.796875,13.109375,-8.578125
1635457929259,0.3317871,-0.9089966,0.2008667,12.375,10.828125,-1.03125
1635457929293,0.28027344,-0.81622314,0.34588623,12.765625,-2.34375,-2.734375
1635457929353,-0.118896484,-0.8220825,0.2904663,11.40625,-4.078125,-10.109375
1635457929388,-0.15820312,-0.9204712,0.24969482,31.0,-3.546875,-2.671875
1635457929426,0.19628906,-0.98321533,0.184021,26.125,-12.015625,5.09375
1635457929462,0.27490234,-0.8526001,0.2033081,13.40625,-14.671875,-1.421875
1635457929500,0.060058594,-0.881897,0.23187256,6.09375,-19.234375,-0.578125
1635457929538,-0.048828125,-0.9529419,0.25823975,-8.15625,-26.359375,3.8125
1635457929575,-0.16113281,-0.88409424,0.39349365,-0.015625,-17.015625,5.0
1635457929613,-0.1809082,-1.0403442,0.30926514,13.140625,-2.0,6.609375
1635457929651,0.13867188,-1.6121216,0.50408936,-8.0625,-12.78125,-12.5625
1635457929689,-0.07397461,-1.3098755,0.6298218,-30.125,-15.84375,-17.28125
1635457929725,-0.17358398,-1.1082153,0.093444824,-3.8125,24.71875,-22.3125
1635457929781,0.33081055,-1.1973267,-0.31939697,5.484375,-2.671875,-24.1875
1635457929829,0.4177246,-1.1113892,0.121520996,-13.65625,8.390625,-7.375
1635457929857,0.07788086,-0.86505127,0.34735107,-13.375,0.765625,6.625
1635457929894,0.033447266,-1.0230103,0.07196045,13.671875,-1.125,8.03125
1635457929931,0.12451172,-1.0325317,0.17547607,3.859375,8.5625,2.015625
1635457929970,-0.041503906,-0.7822876,0.3209839,-2.71875,15.734375,6.78125
1635457930008,0.06201172,-0.77593994,0.291687,12.21875,11.578125,14.53125
1635457930044,0.16064453,-0.83843994,0.28729248,2.53125,11.28125,9.78125
1635457930082,0.020507812,-0.8518677,0.3102417,4.484375,24.390625,1.578125
1635457930119,-0.026611328,-0.80426025,0.36444092,4.203125,23.671875,0.359375
1635457930175,0.056640625,-0.76226807,0.3781128,3.65625,21.59375,-3.390625
1635457930213,0.092285156,-0.8706665,0.40447998,4.453125,21.484375,-7.625
1635457930250,0.12158203,-0.9944458,0.29779053,4.203125,13.0,-1.046875
1635457930287,0.23071289,-1.24469,0.47479248,-4.1875,5.234375,8.859375
1635457930326,-0.24121094,-1.1333618,0.621521,-19.78125,15.0,-6.78125
1635457930364,-0.026855469,-1.258606,0.26507568,-4.59375,0.0625,-6.34375
1635457930400,0.6933594,-1.5066528,0.02166748,-2.921875,-9.875,18.046875
1635457930438,0.56518555,-0.8569946,-0.1038208,-31.53125,9.078125,12.734375
1635457930475,0.016113281,-0.88653564,0.048034668,-7.09375,-0.25,-7.140625
1635457930513,-0.17138672,-0.98150635,0.3678589,-5.796875,-3.359375,-17.796875
1635457930569,0.18408203,-0.9429321,0.14764404,22.921875,5.625,-8.734375
1635457930606,0.34179688,-0.72540283,0.21868896,12.359375,-7.046875,-4.21875
1635457930644,0.08691406,-0.74005127,0.23480225,11.09375,-7.71875,-6.0625
1635457930681,-0.12719727,-0.9927368,0.23626709,19.296875,-14.078125,-7.796875
1635457930719,-0.017578125,-0.97613525,0.25579834,18.03125,-12.265625,-3.078125
1635457930756,0.10668945,-0.8081665,0.31610107,13.75,-8.140625,5.640625
1635457930795,0.057128906,-0.85040283,0.33343506,6.171875,-14.21875,5.015625
1635457930831,-0.045898438,-0.93951416,0.28851318,0.28125,-12.953125,-0.546875
1635457930869,-0.14941406,-0.92071533,0.35638428,2.890625,-11.40625,1.375
1635457930908,-0.24023438,-0.942688,0.3920288,8.4375,-4.71875,5.6875
1635457930944,0.030029297,-1.3069458,0.46673584,14.578125,-14.609375,-3.1875
1635457931000,0.08691406,-1.2383423,0.51239014,-14.40625,-8.328125,-8.03125
1635457931038,-0.22729492,-1.1477661,0.34051514,-8.5,5.421875,-16.5
1635457931076,0.041992188,-1.4087524,-0.19439697,18.046875,-7.0625,-32.46875
1635457931112,0.5966797,-1.02594,-0.27838135,10.65625,-0.78125,-7.9375
1635457931150,0.3239746,-0.6970825,0.23309326,-20.84375,3.640625,4.9375
1635457931193,-0.033935547,-0.89971924,0.21282959,1.59375,-9.765625,6.609375
1635457931224,-0.12060547,-1.1760864,0.011413574,15.5,3.96875,2.8125
1635457931264,-0.0063476562,-1.0513306,0.2189331,-1.609375,11.078125,8.953125
1635457931299,0.17578125,-0.8596802,0.2736206,-0.859375,7.09375,13.75
1635457931338,0.19140625,-0.7671509,0.25213623,-3.15625,5.0625,12.390625
1635457931395,-0.0036621094,-0.8753052,0.2597046,5.75,6.421875,7.25
1635457931431,-0.052001953,-0.8850708,0.2477417,5.015625,4.25,8.4375
1635457931470,0.033447266,-0.78497314,0.3102417,5.8125,15.453125,5.953125
1635457931508,0.068847656,-0.81036377,0.35125732,5.03125,20.140625,-3.328125
1635457931543,0.099121094,-0.9014282,0.401062,1.296875,12.59375,-5.265625
1635457931581,0.029541016,-0.94732666,0.401062,-2.15625,12.171875,-4.90625
1635457931619,0.13989258,-1.2085571,0.40667725,7.0,9.1875,4.015625
1635457931661,0.10058594,-1.2402954,0.49969482,-12.5,3.8125,-0.765625
1635457931693,0.2854004,-1.3357544,0.21380615,-1.1875,-19.0,8.71875
1635457931731,0.34960938,-1.5195923,0.090270996,-20.609375,-21.265625,26.03125
1635457931788,-0.018310547,-0.6121216,0.025817871,-35.625,-3.390625,6.390625
1635457931827,0.0146484375,-0.6397095,0.031921387,9.328125,7.90625,-4.125
1635457931863,0.20996094,-1.2647095,0.008728027,9.921875,9.578125,-3.859375
1635457931900,0.22729492,-1.1213989,0.13909912,-4.984375,23.78125,-7.015625
1635457931937,0.23803711,-0.6692505,0.23602295,4.28125,7.640625,-3.625
1635457931977,0.10229492,-0.7473755,0.2189331,6.140625,1.375,-7.28125
1635457932013,-0.030761719,-0.9104614,0.26287842,15.171875,2.09375,-6.09375
1635457932050,0.009765625,-1.0022583,0.21380615,19.734375,3.140625,-0.703125
1635457932088,0.12915039,-0.92315674,0.22723389,16.546875,-4.671875,1.703125
1635457932125,0.14355469,-0.87213135,0.3222046,14.5625,-13.359375,1.46875
1635457932163,-0.012939453,-0.8809204,0.3048706,11.4375,-12.9375,5.4375
1635457932218,-0.07104492,-0.8982544,0.28070068,1.15625,-17.546875,6.1875
1635457932257,-0.072021484,-0.88360596,0.29193115,1.578125,-13.375,0.59375
1635457932313,-0.1640625,-1.0010376,0.29119873,12.15625,3.484375,0.140625
1635457932331,0.12719727,-1.2935181,0.4442749,0.515625,-8.703125,-6.765625
1635457932371,0.11401367,-1.4421997,0.52923584,-14.796875,-13.703125,-12.8125
1635457932407,-0.22924805,-1.4707642,0.22894287,-6.375,11.5625,-26.65625
1635457932448,0.14428711,-1.1924438,-0.12579346,-2.234375,1.625,-31.234375
1635457932482,0.4716797,-0.7163696,-0.19268799,-5.609375,-2.0,-9.484375
1635457932519,0.22607422,-0.84381104,0.23797607,-21.609375,2.515625,9.53125
1635457932556,-0.052246094,-1.0740356,0.19866943,9.53125,-0.6875,2.890625
1635457932619,-0.0146484375,-1.0755005,0.066345215,13.65625,16.75,1.421875
1635457932651,0.15722656,-0.93634033,0.2946167,-8.453125,6.65625,9.453125
1635457932688,0.072509766,-0.8206177,0.27801514,-2.84375,10.859375,7.25
1635457932725,0.019042969,-0.86798096,0.27508545,2.359375,19.3125,6.9375
1635457932763,0.053710938,-0.8711548,0.31121826,0.28125,17.234375,6.328125
1635457932800,0.025146484,-0.8435669,0.33148193,1.28125,22.140625,3.765625
1635457932837,0.032714844,-0.78741455,0.34857178,3.734375,20.21875,0.75
1635457932875,0.099121094,-0.8130493,0.3944702,2.28125,21.203125,-6.578125
1635457932913,0.12768555,-0.8982544,0.42889404,-0.109375,15.71875,-6.359375
1635457932951,-0.04272461,-0.9336548,0.43621826,-1.140625,16.671875,-3.21875
1635457933006,0.119140625,-1.1372681,0.47772217,5.296875,7.125,7.359375
1635457933045,0.0029296875,-1.1668091,0.69451904,-15.953125,13.609375,-2.359375
1635457933083,-0.059326172,-1.1541138,0.45526123,-10.15625,7.1875,-4.28125
1635457933119,0.32714844,-1.3130493,0.1564331,-5.25,-10.4375,16.765625
1635457933156,0.62109375,-1.2366333,-0.06378174,-24.234375,-5.359375,30.140625
1635457933196,0.18701172,-0.8850708,-0.12310791,-12.59375,4.046875,-1.703125
1635457933230,-0.11987305,-0.9915161,0.28411865,-6.03125,17.4375,-25.84375
1635457933269,0.059326172,-0.9282837,0.121520996,18.109375,7.90625,-10.640625
1635457933307,0.43530273,-0.68927,0.12347412,20.640625,-0.3125,-1.390625
1635457933344,0.28100586,-0.7925415,0.33221436,12.75,-12.234375,-3.84375
1635457933382,-0.16674805,-0.98760986,0.14837646,19.6875,-22.828125,-3.890625
1635457933438,-0.1015625,-1.0376587,0.2555542,28.171875,-20.796875,-3.359375
1635457933476,0.13671875,-0.928772,0.27972412,16.734375,-14.484375,-0.6875
1635457933513,0.095947266,-0.7793579,0.2699585,14.796875,-15.078125,2.0625
1635457933551,0.020507812,-0.847229,0.26507568,12.015625,-22.96875,7.125
1635457933592,9.765625E-4,-0.9368286,0.25042725,-0.9375,-28.953125,8.125
1635457933625,-0.072753906,-0.9126587,0.19598389,-4.71875,-18.9375,9.859375
1635457933664,-0.28100586,-0.96051025,0.33514404,13.90625,2.203125,6.765625
1635457933699,0.16674805,-1.3848267,0.4882202,2.234375,-18.984375,-11.90625
1635457933738,0.06201172,-1.210022,0.58148193,-21.625,-13.484375,-16.625
1635457933774,-0.3947754,-1.3032837,0.3048706,-9.75,15.125,-22.859375
1635457933832,0.12988281,-1.3723755,-0.25665283,9.21875,-7.234375,-24.21875
1635457933871,0.67089844,-0.9727173,-0.18902588,5.328125,7.234375,-6.09375
1635457933907,0.33447266,-0.8447876,0.23968506,-21.28125,-0.984375,2.59375
1635457933944,-0.041259766,-0.87994385,0.18548584,2.734375,-7.53125,5.71875
1635457933981,-0.08618164,-1.0386353,0.07928467,12.046875,10.875,8.5625
1635457934020,0.055664062,-0.99346924,0.3065796,-2.75,11.28125,11.953125
1635457934056,0.051757812,-0.87994385,0.2374878,-2.4375,13.1875,7.25
1635457934094,0.05493164,-0.81744385,0.30999756,-0.015625,24.390625,5.5625
1635457934131,0.03491211,-0.81378174,0.2819214,0.765625,25.625,4.3125
1635457934225,0.08300781,-0.8557739,0.2819214,3.953125,20.5625,3.453125
1635457934229,0.119384766,-0.7432251,0.3883667,1.09375,20.046875,-3.375
1635457934264,0.100097656,-0.8755493,0.39959717,6.15625,17.796875,-9.28125
1635457934299,0.060791016,-0.95391846,0.3829956,0.65625,10.109375,-7.109375
1635457934337,0.049560547,-0.9553833,0.38104248,-1.453125,7.421875,-3.40625
1635457934375,0.064453125,-1.0542603,0.49188232,-0.03125,13.078125,4.234375
1635457934415,-0.007080078,-1.0357056,0.5360718,-8.8125,11.5625,1.71875
1635457934450,-0.061279297,-1.0982056,0.49163818,-11.90625,6.71875,-5.71875
1635457934487,0.4248047,-1.4285278,0.2062378,-5.625,-15.96875,8.46875
1635457934525,0.6503906,-1.5606079,-0.12408447,-22.421875,-0.359375,26.21875
1635457934564,0.06225586,-0.60650635,-0.21002197,-29.609375,6.40625,7.578125
1635457934601,-0.060058594,-0.87872314,0.36810303,-3.046875,-7.0,-18.078125
1635457934657,0.13623047,-1.1126099,0.24969482,16.546875,-5.0625,-9.796875
1635457934694,0.2944336,-0.9456177,0.10809326,18.09375,-1.9375,-2.0625
1635457934731,0.20727539,-0.73687744,0.28070068,14.34375,-27.296875,-2.34375
1635457934769,-0.11010742,-0.81378174,0.21966553,19.015625,-17.671875,-5.125
1635457934806,-0.14038086,-0.97857666,0.19256592,30.453125,-21.421875,-1.546875
1635457934844,0.07885742,-0.9692993,0.24017334,18.890625,-21.859375,2.65625
1635457934882,0.0715332,-0.8609009,0.27264404,9.0,-14.078125,2.6875
1635457934919,-0.07104492,-0.8452759,0.36883545,8.140625,-16.109375,6.25
1635457934956,-0.033203125,-0.9446411,0.3756714,3.1875,-20.4375,8.96875
1635457934994,-0.020507812,-0.9314575,0.3378296,-4.0,-14.515625,3.765625
1635457935052,-0.17895508,-0.8648071,0.21624756,-0.828125,-0.578125,2.34375
1635457935088,-0.013183594,-0.98809814,0.38446045,18.4375,-0.625,4.453125
1635457935125,0.27856445,-1.2771606,0.5018921,-2.90625,-22.0,-1.390625
1635457935163,-0.09082031,-1.2608032,0.5529175,-18.515625,-13.125,-8.515625
1635457935203,-0.5756836,-1.2278442,0.4381714,-6.40625,7.046875,-19.953125
1635457935243,0.032958984,-1.1426392,-0.19317627,17.671875,5.984375,-30.046875
1635457935277,0.67944336,-0.9793091,-0.20587158,12.5,8.03125,-4.09375
1635457935312,0.38427734,-0.92510986,0.23040771,-16.28125,-9.21875,4.5625
1635457935351,-0.061523438,-1.0713501,0.1408081,-0.0625,0.734375,-0.046875
1635457935388,-0.1628418,-1.055481,0.074645996,7.984375,13.984375,3.75
1635457935481,0.017333984,-0.8272095,0.23114014,-6.46875,21.484375,6.390625
1635457935484,0.12475586,-0.80718994,0.29608154,-7.484375,23.8125,6.796875
1635457935519,0.067871094,-0.86602783,0.31878662,-5.75,26.640625,3.734375
1635457935557,-0.005126953,-0.91070557,0.26116943,0.9375,25.703125,3.59375
1635457935595,0.02368164,-0.8128052,0.3444214,-5.984375,27.328125,-0.15625
1635457935633,0.05517578,-0.7908325,0.371521,-0.53125,28.28125,-8.796875
1635457935675,0.09741211,-0.84210205,0.3649292,1.734375,16.65625,-6.71875
1635457935706,0.013916016,-0.81988525,0.46600342,-0.75,16.59375,-8.109375
1635457935743,-0.0690918,-0.8843384,0.42596436,5.28125,18.34375,-5.140625
1635457935781,0.083984375,-1.0820923,0.42791748,4.421875,11.5,4.703125
1635457935818,0.040039062,-1.0886841,0.51434326,-14.984375,17.859375,-1.96875
1635457935893,0.09838867,-1.3381958,0.24847412,-9.234375,1.953125,4.609375
1635457935913,0.5036621,-1.8916626,-0.026916504,2.328125,-8.28125,41.578125
1635457935950,0.3347168,-0.835022,-0.054992676,-47.890625,5.6875,11.125
1635457935987,0.16796875,-0.7944946,0.13372803,9.171875,11.21875,-14.296875
1635457936025,0.012207031,-1.1104126,0.07928467,5.609375,0.875,-6.78125
1635457936062,0.27563477,-1.015686,0.08270264,1.46875,-4.046875,-3.46875
1635457936101,0.08081055,-0.6904907,0.22869873,1.015625,-2.203125,-7.484375
1635457936137,-0.17041016,-0.77056885,0.19915771,14.015625,16.75,-3.015625
1635457936194,0.111083984,-1.0615845,0.17889404,14.984375,-10.203125,1.53125
1635457936213,0.31201172,-1.0564575,0.30169678,9.59375,-6.46875,-3.453125
1635457936270,0.19458008,-1.0505981,0.23577881,2.625,-10.5625,-7.28125
1635457936306,-0.008544922,-0.892395,0.2670288,-3.453125,-19.984375,-3.0625
1635457936343,0.027832031,-0.95684814,0.2579956,-6.828125,-25.890625,5.328125
1635457936381,-0.040527344,-0.923645,0.27191162,5.625,-16.921875,9.6875
