# Sensor type: Respeck
# Activity type: Movement
# Activity code: 9
# Subject id: s2101848
# Notes: 
timestamp,accel_x,accel_y,accel_z,gyro_x,gyro_y,gyro_z
1635458476549,0.23266602,-0.86138916,0.51361084,-1.28125,2.484375,-0.625
1635458476605,0.23364258,-0.850647,0.52557373,-0.578125,2.765625,-0.625
1635458476643,0.23535156,-0.8467407,0.5348511,-0.734375,1.890625,-0.03125
1635458476681,0.24414062,-0.86065674,0.52508545,-0.71875,1.890625,0.25
1635458476718,0.24365234,-0.8518677,0.5282593,0.375,2.078125,0.21875
1635458476756,0.24316406,-0.84625244,0.527771,0.40625,2.640625,0.203125
1635458476794,0.23828125,-0.85040283,0.5206909,0.21875,1.640625,0.78125
1635458476832,0.23779297,-0.8496704,0.5336304,2.484375,1.296875,0.390625
1635458476869,0.24707031,-0.8406372,0.5326538,2.453125,1.703125,0.59375
1635458476906,0.2331543,-0.84869385,0.5204468,2.9375,1.90625,1.21875
1635458476944,0.24023438,-0.8452759,0.54364014,1.484375,0.515625,1.9375
1635458476982,0.22851562,-0.8479614,0.5541382,3.640625,0.171875,2.75
1635458477038,0.20117188,-0.8460083,0.5470581,3.625,1.40625,2.765625
1635458477075,0.19799805,-0.8501587,0.5404663,2.78125,2.984375,2.46875
1635458477113,0.22607422,-0.8635864,0.5507202,2.640625,6.8125,1.578125
1635458477151,0.2553711,-0.862854,0.56536865,3.6875,6.703125,2.53125
1635458477188,0.2619629,-0.81988525,0.5475464,5.734375,4.328125,4.984375
1635458477225,0.3088379,-0.756897,0.51361084,10.625,3.421875,5.6875
1635458477262,0.3232422,-0.7202759,0.51434326,17.921875,2.046875,4.546875
1635458477301,0.27392578,-0.79278564,0.5895386,10.40625,-2.765625,1.15625
1635458477338,0.2998047,-0.9841919,0.6605835,1.796875,-2.984375,3.3125
1635458477376,0.27001953,-0.91851807,0.57489014,8.5625,3.765625,6.5625
1635458477431,0.23168945,-0.7593384,0.49578857,6.09375,6.875,2.75
1635458477470,0.20996094,-0.7373657,0.51190186,1.171875,5.84375,0.375
1635458477506,0.23144531,-0.7769165,0.5582886,1.0625,7.5625,-0.265625
1635458477545,0.23925781,-0.7908325,0.5841675,0.8125,11.53125,-3.859375
1635458477582,0.25219727,-0.7617798,0.55804443,-0.34375,13.625,-6.890625
1635458477619,0.29418945,-0.8010864,0.5619507,3.875,16.15625,-6.765625
1635458477656,0.34204102,-0.77667236,0.54241943,-2.5625,9.859375,-6.0
1635458477694,0.27954102,-0.7131958,0.5392456,-6.28125,14.96875,-11.796875
1635458477732,0.3022461,-0.7991333,0.5302124,-5.546875,16.71875,-12.96875
1635458477770,0.34545898,-0.8867798,0.5348511,-5.71875,12.546875,-7.953125
1635458477862,0.37817383,-0.9446411,0.5529175,4.984375,8.578125,-4.234375
1635458477865,0.36254883,-0.92803955,0.5409546,4.234375,12.96875,-7.640625
1635458477900,0.3425293,-0.8753052,0.4862671,6.984375,12.1875,-7.6875
1635458477937,0.41552734,-0.9710083,0.39764404,15.203125,4.421875,-1.09375
1635458477975,0.40600586,-1.131897,0.3493042,12.0,-9.8125,7.515625
1635458478013,0.26416016,-1.0122681,0.27191162,17.796875,-6.0625,3.546875
1635458478050,0.2705078,-0.9212036,0.25872803,13.125,-4.734375,4.5
1635458478088,0.34692383,-0.8723755,0.2387085,16.390625,-15.140625,7.09375
1635458478125,0.3647461,-0.84161377,0.25750732,12.109375,-19.03125,4.484375
1635458478163,0.26733398,-0.9348755,0.2387085,16.015625,-18.640625,-0.390625
1635458478219,0.20117188,-0.956604,0.2538452,1.625,-17.296875,0.3125
1635458478256,0.24633789,-0.83135986,0.31219482,1.671875,-11.234375,0.140625
1635458478294,0.29003906,-0.8682251,0.32489014,4.65625,-8.671875,-0.296875
1635458478332,0.31225586,-0.8882446,0.3324585,4.421875,-11.859375,2.734375
1635458478371,0.25708008,-0.925354,0.3685913,2.0,-12.671875,3.046875
1635458478406,0.22045898,-0.8789673,0.38641357,-3.28125,-12.984375,5.953125
1635458478444,0.09472656,-0.7498169,0.4611206,1.5,-11.5,2.421875
1635458478482,0.123046875,-0.88946533,0.44696045,-7.546875,-10.484375,-3.0625
1635458478520,0.13842773,-0.8357544,0.47528076,-8.8125,-5.046875,-0.4375
1635458478557,0.15161133,-0.8357544,0.4725952,-7.9375,-4.65625,6.25
1635458478594,0.21850586,-0.82891846,0.50946045,0.34375,-12.234375,14.078125
1635458478650,0.29882812,-0.84991455,0.59173584,46.921875,-66.71875,44.921875
1635458478687,0.27416992,-0.92388916,0.66278076,2.78125,-0.953125,10.953125
1635458478725,0.14404297,-0.9295044,0.77630615,-40.9375,53.828125,-10.109375
1635458478762,0.26464844,-0.9678345,0.49188232,17.5625,21.203125,-2.9375
1635458478801,0.2705078,-1.1502075,0.39544678,31.03125,7.546875,10.234375
1635458478838,0.4333496,-0.9727173,0.33709717,43.953125,20.515625,13.734375
1635458478875,0.62841797,-0.9602661,0.07489014,34.84375,12.546875,22.546875
1635458478912,0.62060547,-0.81500244,0.058288574,5.46875,11.984375,16.1875
1635458478951,0.46118164,-0.7918091,0.29779053,-11.484375,3.828125,1.609375
1635458478987,0.4284668,-0.85284424,0.2904663,-7.796875,2.75,-3.75
1635458479044,0.4350586,-0.8328247,0.22503662,-3.5625,13.859375,-4.140625
1635458479081,0.5048828,-0.7605591,0.24090576,-4.5625,11.296875,-2.8125
1635458479138,0.50146484,-0.736145,0.26239014,-9.0,5.171875,-5.9375
1635458479157,0.3293457,-0.72052,0.3456421,-16.203125,8.796875,-9.65625
1635458479194,0.2631836,-0.7371216,0.29852295,-15.34375,11.53125,-8.296875
1635458479231,0.3178711,-0.69317627,0.33831787,-22.015625,15.265625,-12.96875
1635458479270,0.36572266,-0.6934204,0.4147339,-25.40625,14.828125,-13.171875
1635458479306,0.39526367,-0.7131958,0.4833374,-16.296875,6.90625,-13.28125
1635458479345,0.2939453,-0.7752075,0.5585327,-8.5,8.3125,-13.6875
1635458479381,0.2878418,-0.94366455,0.5910034,-7.625,16.546875,-12.671875
1635458479438,0.027832031,-1.0671997,0.69085693,18.671875,38.890625,-4.734375
1635458479475,0.4794922,-0.8069458,0.34320068,-22.640625,-1.6875,-7.53125
1635458479531,0.41748047,-0.7661743,0.7411499,-15.59375,28.0625,-40.1875
1635458479550,0.26611328,-1.1057739,0.6559448,11.0625,29.125,-4.265625
1635458479588,0.5895996,-1.1531372,0.1395874,26.234375,-3.734375,20.296875
1635458479626,0.57177734,-1.0015259,0.22576904,-1.5625,2.625,6.375
1635458479663,0.23779297,-0.78497314,0.26312256,7.546875,9.515625,-6.109375
1635458479699,0.41357422,-1.2141724,0.21795654,3.078125,-10.953125,8.5
1635458479738,0.50927734,-0.91729736,0.24432373,1.109375,-8.71875,2.9375
1635458479794,0.4169922,-0.9146118,0.31585693,7.78125,-10.46875,-5.46875
1635458479813,0.3161621,-0.9277954,0.23138428,21.84375,-14.84375,-6.3125
1635458479869,0.2097168,-0.866272,0.246521,6.390625,-2.359375,-3.890625
1635458479906,0.29833984,-0.76348877,0.2177124,-4.046875,-3.9375,3.671875
1635458479944,0.38085938,-0.7683716,0.27044678,2.078125,-9.265625,1.625
1635458479981,0.35131836,-0.81817627,0.2975464,7.765625,-11.359375,-0.28125
1635458480018,0.24560547,-0.8101196,0.3078003,7.953125,-14.3125,-0.25
1635458480056,0.20117188,-0.7476196,0.31121826,3.0625,-11.78125,2.953125
1635458480094,0.21606445,-0.8435669,0.34417725,-3.171875,-18.5,2.0
1635458480131,0.1616211,-0.8875122,0.5153198,-3.203125,-18.625,0.6875
1635458480169,0.08129883,-0.9348755,0.59124756,4.0625,-14.796875,2.328125
1635458480208,-0.15454102,-1.0776978,0.5182495,23.484375,-111.125,55.875
1635458480262,0.015136719,-0.798645,0.8226929,27.875,-8.203125,16.28125
1635458480300,0.14990234,-0.8179321,0.8126831,-21.78125,69.3125,-3.453125
1635458480338,0.685791,-0.7949829,0.07928467,-2.859375,103.765625,-8.59375
1635458480377,0.9211426,-1.697815,-0.32525635,35.78125,-0.546875,-3.59375
1635458480413,0.6958008,-1.1355591,0.4923706,5.953125,36.265625,-28.40625
1635458480451,0.31079102,-0.925354,0.2765503,3.03125,18.15625,-12.75
1635458480488,0.37890625,-0.8591919,0.08685303,-15.53125,12.53125,0.328125
1635458480525,0.45117188,-0.7022095,0.2592163,-20.171875,9.609375,0.6875
1635458480563,0.3635254,-0.64019775,0.2489624,-17.890625,9.265625,1.078125
1635458480600,0.38330078,-0.6109009,0.1515503,-22.21875,1.265625,0.328125
1635458480657,0.3527832,-0.6109009,0.24017334,-10.546875,2.265625,1.6875
1635458480694,0.37280273,-0.56866455,0.29730225,-8.8125,-6.375,3.171875
1635458480731,0.43164062,-0.67974854,0.4418335,-9.375,-11.375,-3.25
1635458480769,0.2993164,-0.772522,0.47869873,-1.703125,-10.1875,-6.390625
1635458480807,0.18579102,-0.63946533,0.48260498,-4.40625,-8.328125,-6.578125
1635458480846,0.4152832,-0.82354736,0.70428467,-13.703125,-10.40625,-10.796875
1635458480881,0.23291016,-0.9314575,0.743103,-3.46875,8.015625,-17.59375
1635458480919,0.25854492,-1.1616821,0.8121948,-5.453125,8.40625,-6.921875
1635458480957,0.28344727,-1.2112427,0.5831909,-1.75,8.71875,3.0
1635458480995,0.5085449,-1.0327759,0.59661865,-19.28125,10.0,-5.53125
1635458481031,0.3330078,-0.8723755,0.53338623,9.890625,26.0625,-1.5625
1635458481088,0.46655273,-0.9512329,0.09490967,9.65625,2.25,15.484375
1635458481126,0.4375,-0.74884033,0.16253662,10.640625,-2.6875,2.75
1635458481163,0.2944336,-0.81988525,0.3336792,4.84375,-10.359375,-1.296875
1635458481201,0.234375,-0.83551025,0.3756714,16.484375,-13.625,0.34375
1635458481238,0.2939453,-0.9194946,0.3366089,5.921875,-10.453125,-0.90625
1635458481276,0.32104492,-0.925354,0.338562,4.09375,-6.96875,0.015625
1635458481313,0.32885742,-0.8796997,0.35369873,16.953125,-11.921875,1.28125
1635458481351,0.32104492,-0.819397,0.3505249,23.296875,-16.453125,0.390625
1635458481387,0.27368164,-0.76153564,0.30682373,21.578125,-18.109375,3.796875
1635458481425,0.22363281,-0.770813,0.31097412,21.734375,-24.765625,11.453125
1635458481481,0.16503906,-0.86383057,0.322937,14.171875,-22.78125,13.75
1635458481519,0.14672852,-0.80426025,0.37347412,7.078125,-16.234375,11.875
1635458481556,0.10961914,-0.8118286,0.46990967,-5.375,-18.25,7.6875
1635458481594,0.0769043,-0.9495239,0.5060425,2.359375,-11.859375,0.765625
1635458481632,0.095947266,-1.0078735,0.5993042,-8.40625,-11.140625,6.46875
1635458481672,0.08569336,-1.0032349,0.5848999,13.71875,-42.734375,11.4375
1635458481705,0.13574219,-1.0025024,0.7789917,7.28125,23.4375,0.421875
1635458481762,0.21972656,-1.0056763,0.4677124,0.359375,22.75,8.203125
1635458481782,0.41723633,-1.1397095,0.39349365,14.46875,19.75,5.53125
1635458481818,0.5656738,-1.2151489,0.11663818,32.109375,11.0,13.359375
1635458481876,0.8786621,-0.7131958,0.1461792,8.125,5.125,14.765625
1635458481914,0.51220703,-0.68927,0.2514038,12.375,2.640625,6.71875
1635458481951,0.32006836,-0.8242798,0.2489624,3.578125,-7.296875,3.546875
1635458481988,0.33007812,-0.8740845,0.2267456,-11.125,8.546875,-0.546875
1635458482025,0.41674805,-0.76104736,0.2255249,-15.296875,18.5,-4.90625
1635458482063,0.45361328,-0.7139282,0.2645874,-10.53125,13.375,-5.484375
1635458482119,0.4699707,-0.72613525,0.32391357,-12.984375,13.3125,-7.5625
1635458482138,0.42016602,-0.7817993,0.29388428,-9.375,13.53125,-6.125
1635458482175,0.40942383,-0.6980591,0.36395264,-12.640625,7.484375,-8.15625
1635458482213,0.35131836,-0.67974854,0.43133545,-18.109375,6.953125,-11.78125
1635458482250,0.3034668,-0.6814575,0.41693115,-14.515625,4.171875,-10.984375
1635458482325,0.32373047,-0.72076416,0.53900146,-15.546875,-1.359375,-10.78125
1635458482344,0.32739258,-0.74835205,0.59002686,-12.25,-0.109375,-11.671875
1635458482381,0.24658203,-0.87750244,0.664978,-11.203125,4.21875,-10.109375
1635458482419,0.3466797,-1.0913696,0.76116943,13.40625,0.171875,-4.25
1635458482457,0.33032227,-0.95098877,0.7111206,-20.84375,30.578125,-3.59375
1635458482494,0.51904297,-0.7695923,0.61883545,-19.234375,42.078125,-24.734375
1635458482533,0.24267578,-1.0991821,0.6925659,-0.875,35.890625,-20.71875
1635458482569,0.4519043,-1.0271606,0.35076904,11.140625,13.640625,1.6875
1635458482607,0.49804688,-1.0789185,0.16668701,21.09375,6.890625,8.3125
1635458482644,0.40405273,-0.8545532,0.14593506,19.5,-4.09375,4.6875
1635458482700,0.3190918,-1.0501099,0.22064209,10.390625,3.828125,-6.203125
1635458482738,0.32763672,-0.8442993,0.15545654,9.140625,-2.984375,1.1875
1635458482775,0.46875,-0.7984009,0.15960693,13.125,-19.4375,4.75
1635458482813,0.34692383,-0.88238525,0.23114014,6.1875,-15.890625,-1.71875
1635458482851,0.1977539,-0.94659424,0.22772217,8.015625,-10.9375,-1.0
1635458482888,0.18774414,-0.8550415,0.28851318,-1.4375,-11.6875,0.421875
1635458482925,0.3190918,-0.78009033,0.31976318,-7.5,-15.90625,0.671875
1635458482963,0.31713867,-0.7786255,0.36419678,4.328125,-20.609375,2.796875
1635458483038,0.23779297,-0.76519775,0.30975342,4.84375,-20.546875,2.640625
1635458483046,0.09887695,-0.6826782,0.45404053,-3.125,-17.90625,2.03125
1635458483132,0.012451172,-0.71051025,0.4537964,2.390625,-8.328125,3.5
1635458483136,0.13574219,-1.0325317,0.48797607,-1.53125,-9.953125,10.75
1635458483169,0.18408203,-1.2442017,0.45062256,36.171875,-59.53125,21.5
1635458483206,0.2993164,-0.7827759,1.0368042,-46.625,36.84375,-8.96875
1635458483262,0.020751953,-1.0686646,0.6749878,12.359375,14.328125,-3.75
1635458483282,0.15063477,-1.0801392,0.5128784,10.609375,4.25,10.15625
1635458483319,0.34692383,-0.9524536,0.39642334,15.34375,8.40625,14.15625
1635458483357,0.49829102,-0.991272,0.082214355,32.375,9.375,18.640625
1635458483394,0.7038574,-0.82940674,0.26434326,-0.609375,0.703125,14.75
1635458483432,0.4375,-0.9170532,0.3546753,-4.171875,-5.578125,3.296875
1635458483506,0.2866211,-0.8674927,0.33026123,-6.421875,7.546875,-1.171875
1635458483525,0.31103516,-0.8452759,0.35980225,-14.453125,11.859375,1.609375
1635458483562,0.47583008,-0.76226807,0.3793335,-20.140625,5.6875,5.5
1635458483600,0.4934082,-0.63946533,0.3847046,-5.34375,1.640625,1.109375
1635458483638,0.35107422,-0.6790161,0.37322998,-4.59375,10.234375,-3.40625
1635458483677,0.27539062,-0.739563,0.38616943,-10.171875,9.984375,0.078125
1635458483713,0.34985352,-0.65753174,0.45184326,-13.21875,9.015625,-5.921875
1635458483751,0.36914062,-0.6235962,0.47283936,-8.5,11.015625,-12.34375
1635458483788,0.3798828,-0.661438,0.49847412,-2.6875,8.03125,-10.046875
1635458483826,0.35180664,-0.7444458,0.51971436,7.453125,2.28125,-5.109375
1635458483863,0.2097168,-0.769104,0.53240967,-6.28125,6.875,-9.0625
1635458483919,0.2890625,-0.8040161,0.66937256,-15.3125,18.875,-20.734375
1635458483956,0.2861328,-0.83673096,0.7875366,-14.921875,16.359375,-31.90625
1635458483994,0.2578125,-1.0198364,0.76361084,-13.5,36.65625,-25.359375
1635458484031,0.5644531,-1.2271118,0.45892334,7.8125,17.15625,-5.15625
1635458484070,0.6159668,-1.0808716,0.41204834,9.703125,18.578125,-0.3125
1635458484107,0.48583984,-0.83013916,0.1786499,15.375,15.140625,2.65625
1635458484144,0.328125,-0.87091064,0.16473389,26.53125,3.90625,2.09375
1635458484182,0.2763672,-0.9920044,0.2687378,15.453125,-2.609375,-1.921875
1635458484219,0.35864258,-0.9053345,0.27581787,7.953125,-0.78125,-2.3125
1635458484256,0.4477539,-0.833313,0.199646,12.3125,-15.84375,3.421875
1635458484312,0.3100586,-0.9273071,0.25506592,12.546875,-13.9375,1.5625
1635458484352,0.26879883,-0.91607666,0.25897217,3.171875,-8.125,1.125
1635458484388,0.35229492,-0.82037354,0.27069092,2.1875,-14.03125,2.671875
1635458484425,0.36767578,-0.74420166,0.33929443,8.734375,-20.0,1.765625
1635458484463,0.27807617,-0.8015747,0.35247803,13.046875,-18.796875,4.296875
1635458484500,0.2319336,-0.89678955,0.34344482,9.65625,-21.21875,9.609375
1635458484539,0.19238281,-0.82598877,0.37127686,0.5,-22.25,8.828125
1635458484575,0.15454102,-0.692688,0.4418335,-4.703125,-16.15625,6.375
1635458484612,0.10253906,-0.84869385,0.46380615,-10.46875,-21.609375,8.015625
1635458484651,0.1730957,-0.97906494,0.29901123,-2.4375,-34.6875,16.21875
1635458484706,0.021972656,-1.0227661,0.53948975,42.109375,-137.65625,28.9375
1635458484763,0.13476562,-0.9307251,0.824646,38.640625,-18.171875,9.96875
1635458484782,0.042236328,-0.9475708,0.8456421,-36.109375,23.125,4.546875
1635458484819,0.54418945,-0.85943604,0.4088745,-11.203125,68.6875,-3.5
1635458484875,0.5073242,-1.390686,-0.425354,43.875,1.6875,-4.03125
1635458484894,0.5239258,-1.0203247,0.4454956,-9.21875,1.4375,-9.921875
1635458484930,0.33666992,-0.93218994,0.34832764,-8.703125,12.546875,-6.046875
1635458484968,0.3540039,-0.82696533,0.29974365,-18.65625,7.53125,1.453125
1635458485006,0.38598633,-0.8501587,0.3973999,-9.734375,12.8125,-4.96875
1635458485043,0.32641602,-0.76641846,0.4105835,-10.953125,11.609375,-6.265625
1635458485100,0.35009766,-0.6038208,0.37298584,-25.328125,19.46875,-3.359375
1635458485138,0.31762695,-0.673645,0.44622803,-3.75,19.46875,-2.46875
1635458485175,0.2980957,-0.78692627,0.4274292,-2.90625,12.265625,-5.03125
1635458485213,0.2626953,-0.71466064,0.45819092,-8.21875,20.578125,-14.796875
1635458485250,0.24365234,-0.6585083,0.48724365,-5.625,21.140625,-13.59375
1635458485289,0.3317871,-0.74884033,0.54901123,-13.125,11.171875,-7.453125
1635458485344,0.2697754,-0.7918091,0.59246826,-9.71875,19.265625,-15.375
1635458485363,0.2199707,-0.8706665,0.50531006,-5.015625,18.921875,-14.78125
1635458485401,0.24658203,-0.8206177,0.64520264,-7.40625,19.125,-15.375
1635458485456,0.23266602,-0.79156494,0.71624756,-15.75,15.28125,-22.71875
1635458485477,0.17285156,-0.9031372,0.9640503,-18.046875,26.171875,-21.390625
1635458485531,0.37109375,-0.9536743,0.6246948,-1.109375,21.703125,-4.265625
1635458485569,0.71728516,-1.7337036,0.32562256,44.59375,-13.21875,31.25
1635458485607,0.4230957,-0.84820557,0.19329834,-11.3125,7.828125,21.390625
1635458485644,0.14697266,-0.72247314,0.35247803,2.875,6.875,6.28125
1635458485681,0.25146484,-0.99884033,0.2423706,7.875,6.65625,3.09375
1635458485720,0.56152344,-0.9146118,0.26239014,13.46875,-1.140625,-5.046875
1635458485757,0.4086914,-0.97613525,0.27923584,9.15625,7.84375,-13.734375
1635458485794,0.11279297,-0.88360596,0.29119873,5.015625,4.1875,-5.8125
1635458485832,0.21801758,-0.6555786,0.20306396,-7.171875,16.3125,-6.109375
1635458485869,0.38183594,-0.6382446,0.20306396,-8.421875,5.78125,-5.859375
1635458485944,0.33251953,-0.66656494,0.13787842,-0.484375,-5.609375,-4.296875
1635458485964,0.28955078,-0.30743408,0.22039795,0.109375,-11.28125,-0.84375
1635458486000,0.17919922,-0.32647705,0.7391968,-11.71875,-46.859375,3.09375
1635458486038,0.30981445,-2.0,1.2199097,50.578125,-26.765625,19.125
1635458486075,0.41210938,-0.98809814,0.67596436,6.328125,0.671875,8.109375
1635458486113,-0.08227539,-0.4590454,0.2765503,12.828125,18.203125,-19.28125
1635458486150,0.033935547,-0.47930908,0.31463623,-11.671875,7.984375,-1.609375
1635458486187,0.31176758,-0.43389893,0.44818115,-12.28125,7.859375,6.421875
1635458486224,0.390625,-0.6716919,0.54803467,5.828125,5.640625,-9.875
1635458486263,0.33764648,-1.0178833,0.6622925,3.015625,8.046875,-15.953125
1635458486299,0.2836914,-0.85601807,0.84198,-2.359375,7.890625,-8.875
1635458486356,0.26782227,-0.8460083,0.82318115,6.609375,9.234375,-9.25
1635458486395,0.21362305,-0.9065552,0.8043823,8.734375,7.359375,-8.703125
1635458486432,0.04272461,-0.9065552,0.7963257,0.796875,10.84375,-4.515625
1635458486469,0.45385742,-1.2737427,0.32855225,-3.078125,7.1875,22.46875
1635458486506,0.77612305,-1.5169067,0.22454834,-19.84375,-5.875,37.90625
1635458486543,0.46118164,-0.9414673,0.46868896,9.796875,-13.125,7.625
1635458486581,0.24023438,-1.1194458,0.30584717,-10.1875,2.953125,-6.40625
1635458486619,0.32666016,-0.8257446,0.20233154,9.015625,0.453125,7.03125
1635458486657,0.42138672,-0.8543091,0.27264404,-3.953125,19.671875,-13.0
1635458486693,0.3647461,-1.3330688,0.28070068,-1.15625,0.234375,-19.421875
1635458486751,0.30517578,-0.9793091,0.22259521,-7.453125,12.53125,-17.15625
1635458486789,0.38085938,-0.21734619,0.07952881,-15.1875,7.953125,-18.609375
1635458486825,0.16674805,0.36175537,0.1005249,20.921875,-13.28125,-7.859375
1635458486863,-0.103271484,0.20574951,0.1293335,1.265625,-31.8125,7.671875
1635458486900,-0.1730957,-0.3880005,0.6220093,-40.9375,-37.796875,9.390625
1635458486938,1.1572266,-2.0,1.2289429,84.96875,-18.546875,44.640625
1635458486975,0.81518555,-1.2070923,0.83709717,-5.8125,-14.640625,-8.21875
1635458487013,-0.3388672,-0.77838135,0.33563232,46.015625,14.640625,-0.34375
1635458487051,-0.19995117,-0.56256104,0.07611084,-28.484375,-23.140625,25.328125
1635458487088,0.013916016,-0.6296997,0.86053467,-40.65625,39.765625,-15.234375
1635458487144,0.47753906,-0.8713989,0.902771,-1.328125,26.234375,-19.875
1635458487181,0.57177734,-0.75860596,0.48382568,12.109375,10.6875,-9.34375
1635458487219,0.29589844,-0.39801025,0.7958374,-11.484375,1.8125,-6.5
1635458487256,0.22998047,-0.7180786,0.71429443,27.359375,2.46875,0.421875
1635458487294,0.14916992,-0.72491455,0.7213745,-0.875,-0.4375,7.03125
1635458487331,-0.12402344,-0.659729,0.47528076,3.03125,11.921875,3.5625
1635458487369,0.9511719,-1.8787231,-0.15777588,43.921875,0.375,42.28125
1635458487406,0.9880371,-1.2244263,0.44158936,-3.859375,-9.171875,8.65625
1635458487444,0.12548828,-0.95147705,0.51068115,1.5625,-8.71875,-30.0
1635458487482,0.045166016,-1.097229,0.37322998,8.34375,-7.09375,-1.015625
1635458487519,0.4597168,-0.99713135,0.24725342,10.90625,-9.75,17.578125
1635458487575,0.45996094,-0.7307739,0.2880249,2.109375,-13.625,-7.78125
1635458487614,0.022949219,-0.7180786,0.30828857,11.40625,-10.828125,-14.25
1635458487651,-0.020507812,-0.62335205,0.23260498,2.078125,1.5,-1.375
1635458487688,0.31567383,-0.5886841,0.31903076,-3.203125,-7.0625,9.8125
1635458487725,0.3647461,-0.76153564,0.35198975,10.375,-10.1875,5.328125
1635458487763,0.28027344,-0.81036377,0.38934326,14.359375,-20.796875,5.90625
1635458487801,0.1616211,-0.74298096,0.45672607,6.171875,-24.46875,10.234375
1635458487838,0.13623047,-0.7647095,0.4491577,-1.125,-16.96875,11.875
1635458487881,0.1809082,-0.72320557,0.5055542,9.5625,-21.015625,19.453125
1635458487913,0.24145508,-0.9846802,0.6535034,3.515625,-23.15625,14.4375
1635458487970,0.13671875,-1.0166626,0.69403076,13.6875,-21.015625,11.109375
1635458488006,0.111083984,-1.2041626,0.774353,-0.484375,-16.78125,4.21875
1635458488045,0.13574219,-0.9924927,0.74993896,12.375,9.375,1.71875
1635458488090,0.20019531,-1.0007935,0.5741577,34.09375,19.09375,7.703125
1635458488119,0.421875,-0.97540283,0.2987671,32.8125,20.953125,15.53125
1635458488157,0.8125,-0.92022705,-0.019836426,11.046875,5.4375,27.03125
1635458488195,0.60791016,-0.94244385,0.41204834,20.421875,11.21875,-4.46875
1635458488233,0.17602539,-0.9854126,0.34710693,16.71875,20.984375,-9.375
1635458488270,0.3347168,-0.8377075,0.13983154,-28.34375,17.84375,-2.71875
1635458488306,0.5559082,-0.6380005,0.33929443,-27.921875,14.296875,-4.0
1635458488401,0.5390625,-0.7373657,0.3493042,-3.28125,3.40625,-5.796875
1635458488404,0.3564453,-0.74884033,0.32659912,-11.46875,7.9375,-6.046875
1635458488439,0.34301758,-0.6921997,0.31048584,-19.96875,9.21875,-5.765625
1635458488476,0.36889648,-0.6079712,0.371521,-10.453125,4.109375,-7.09375
1635458488513,0.30493164,-0.5767212,0.34490967,-12.5,4.53125,-8.234375
1635458488551,0.1508789,-0.5564575,0.3534546,-6.234375,6.828125,-11.703125
1635458488588,0.33447266,-0.7630005,0.45965576,-17.9375,-4.53125,-15.296875
1635458488625,0.39697266,-0.7258911,0.68499756,-18.1875,-2.5,-14.390625
1635458488664,0.13452148,-0.9065552,0.73895264,15.84375,10.78125,-7.3125
1635458488700,0.11694336,-1.1213989,1.3253784,-14.546875,52.34375,-5.34375
1635458488756,0.2697754,-1.0181274,0.42401123,-11.25,-1.359375,-4.671875
1635458488794,0.43066406,-0.94488525,0.776062,-27.59375,32.71875,-27.71875
1635458488832,0.48486328,-1.223938,0.7772827,15.609375,24.875,0.671875
1635458488869,0.595459,-1.060852,0.11029053,23.84375,16.84375,15.875
1635458488906,0.40820312,-0.67388916,0.10784912,-8.3125,12.46875,-1.6875
1635458488944,0.23364258,-0.79888916,0.39300537,21.171875,7.25,-7.125
1635458488982,0.46289062,-1.1436157,0.35003662,15.71875,-1.3125,2.9375
1635458489018,0.5229492,-0.80010986,0.24481201,14.0,-20.015625,1.96875
1635458489057,0.30200195,-0.6135864,0.291687,29.828125,-6.828125,-7.328125
1635458489094,0.17529297,-0.83135986,0.14129639,22.421875,-16.53125,-2.203125
1635458489131,0.21557617,-0.78570557,0.16351318,9.078125,-13.703125,5.65625
1635458489188,0.29711914,-0.6133423,0.22113037,8.21875,-20.484375,7.65625
1635458489225,0.20019531,-0.66607666,0.3612671,1.625,-30.40625,3.640625
1635458489263,0.032958984,-0.9312134,0.41326904,-2.46875,-18.109375,0.234375
1635458489300,0.10473633,-0.75909424,0.4401245,-11.125,-17.53125,18.453125
1635458489338,0.38452148,-0.8538208,0.5634155,-21.3125,-39.75,16.40625
1635458489375,0.23071289,-1.1192017,0.840271,-5.921875,-38.453125,-0.421875
1635458489416,0.1237793,-1.048645,0.8551636,16.28125,-23.078125,8.96875
1635458489450,0.08959961,-0.9573364,0.727478,12.375,-21.734375,26.5625
1635458489488,0.26953125,-1.2351685,0.6071167,26.125,-4.625,32.53125
1635458489527,0.5649414,-1.1338501,0.28460693,47.109375,13.984375,24.3125
1635458489581,0.701416,-0.9710083,0.15252686,36.84375,12.828125,11.96875
1635458489620,0.54418945,-0.95025635,0.20111084,12.125,11.171875,4.84375
1635458489656,0.30419922,-0.7554321,0.2843628,-2.046875,21.046875,1.453125
1635458489695,0.3647461,-0.7293091,0.22088623,-12.71875,22.890625,-6.359375
1635458489732,0.46240234,-0.7398071,0.17474365,-7.34375,21.65625,-9.203125
1635458489769,0.49072266,-0.6199341,0.2753296,-17.59375,12.046875,-4.890625
1635458489807,0.49560547,-0.6277466,0.2921753,-13.578125,1.71875,-1.796875
1635458489845,0.36938477,-0.7095337,0.35491943,-12.40625,-1.640625,-3.140625
1635458489882,0.28588867,-0.74420166,0.4647827,-12.796875,1.359375,-8.6875
1635458489919,0.2763672,-0.62506104,0.39959717,-16.65625,3.140625,-15.15625
1635458489975,0.29052734,-0.57232666,0.45550537,-16.453125,3.28125,-15.421875
1635458490013,0.33129883,-0.6734009,0.51849365,-25.578125,-0.015625,-15.53125
1635458490049,0.2565918,-0.73516846,0.66326904,-24.8125,3.265625,-22.25
1635458490088,0.1640625,-0.8584595,0.9371948,-13.84375,15.953125,-26.125
1635458490126,0.15454102,-1.0320435,0.9918823,-8.96875,27.015625,-22.9375
1635458490163,0.29077148,-1.112854,0.75286865,-27.8125,9.546875,-4.859375
1635458490201,0.49951172,-0.928772,0.6376343,-27.703125,14.703125,-11.046875
1635458490238,0.68896484,-1.4690552,0.46575928,13.65625,22.515625,10.328125
1635458490275,0.5571289,-0.8897095,0.2802124,-2.84375,12.15625,14.875
1635458490313,0.47216797,-0.7036743,0.2020874,17.203125,-11.09375,1.453125
1635458490350,0.20629883,-0.9348755,0.3522339,20.5625,3.84375,-3.4375
1635458490406,0.32055664,-0.92193604,0.29925537,40.65625,6.703125,0.578125
1635458490445,0.36987305,-0.7739868,0.2243042,15.59375,-4.3125,2.171875
1635458490481,0.2319336,-0.77667236,0.3234253,14.296875,-6.21875,-1.328125
1635458490519,0.28149414,-0.7588501,0.293396,19.296875,0.890625,0.96875
1635458490557,0.47387695,-0.7119751,0.2111206,12.0,-19.09375,9.484375
1635458490594,0.37451172,-0.6182251,0.37371826,15.109375,-31.9375,8.65625
1635458490632,0.029052734,-0.7161255,0.45233154,18.25,-25.171875,7.109375
1635458490669,0.103271484,-0.8272095,0.3739624,3.390625,-16.390625,11.90625
1635458490706,0.2319336,-0.69732666,0.54681396,-12.1875,-20.171875,11.359375
1635458490744,0.17993164,-0.8567505,0.68621826,-1.890625,-29.921875,0.28125
1635458490800,0.18383789,-1.0327759,0.71258545,10.515625,-24.328125,7.09375
1635458490838,0.1875,-1.1228638,0.87664795,10.75,-17.234375,16.859375
1635458490895,0.2619629,-1.1536255,0.77679443,5.578125,-16.609375,10.96875
1635458490914,0.32910156,-1.180481,0.5648804,20.40625,11.75,2.46875
1635458490950,0.48046875,-1.0740356,0.19500732,47.0625,15.53125,9.234375
1635458490987,0.6677246,-1.0115356,0.055603027,13.484375,4.09375,1.6875
1635458491025,0.3190918,-0.8440552,0.215271,10.96875,12.375,0.515625
1635458491063,0.20825195,-0.6465454,0.22259521,-10.28125,23.609375,0.734375
1635458491102,0.45922852,-0.70440674,0.24676514,-12.5625,11.359375,-0.890625
1635458491138,0.5588379,-0.74005127,0.27337646,-9.734375,10.15625,-8.21875
1635458491231,0.3720703,-0.75177,0.42938232,-7.203125,14.453125,-5.46875
1635458491236,0.26416016,-0.8130493,0.34906006,-12.25,19.0,-2.84375
1635458491269,0.3544922,-0.6712036,0.41278076,-27.0,21.4375,-11.71875
1635458491306,0.31640625,-0.63287354,0.40081787,-22.703125,24.796875,-19.53125
1635458491345,0.32421875,-0.70562744,0.36346436,-22.234375,23.015625,-18.171875
1635458491381,0.41552734,-0.6585083,0.4550171,-30.5625,7.890625,-19.34375
1635458491420,0.2421875,-0.62579346,0.6749878,-34.015625,15.515625,-27.15625
1635458491456,0.11303711,-0.73809814,0.8283081,-8.734375,15.265625,-27.859375
1635458491495,0.17553711,-0.942688,0.69818115,5.578125,15.015625,-19.421875
1635458491531,0.19165039,-1.1519165,0.6342163,-19.203125,9.203125,-9.4375
1635458491570,0.3774414,-0.9944458,0.7296753,-46.453125,21.40625,-29.734375
1635458491626,0.4873047,-1.1882935,0.5018921,-1.09375,25.1875,-7.40625
1635458491662,0.46069336,-0.97784424,0.27825928,-4.40625,3.78125,18.421875
1635458491701,0.3840332,-0.7234497,0.25286865,15.4375,-3.296875,17.0625
1635458491738,0.3034668,-0.83135986,0.30438232,15.75,-2.8125,12.0625
1635458491775,0.38378906,-0.99835205,0.34246826,18.0625,-7.125,9.5
1635458491812,0.43920898,-0.9644165,0.32611084,20.671875,-10.984375,6.328125
1635458491850,0.3515625,-0.8623657,0.39642334,24.046875,-16.453125,3.65625
1635458491887,0.26098633,-0.753479,0.38519287,27.890625,-13.078125,4.234375
1635458491925,0.22729492,-0.7720337,0.31585693,18.78125,-13.859375,4.921875
1635458491963,0.22363281,-0.76348877,0.3390503,6.765625,-18.828125,7.34375
1635458492019,0.21362305,-0.7258911,0.3649292,8.375,-23.578125,11.34375
1635458492056,0.20898438,-0.6970825,0.40740967,3.140625,-25.234375,11.828125
1635458492094,0.08935547,-0.69000244,0.47381592,0.625,-28.3125,9.84375
1635458492132,0.1105957,-0.7476196,0.5470581,-9.203125,-24.671875,10.9375
1635458492170,0.25756836,-0.88482666,0.6581421,-1.015625,-24.640625,15.953125
1635458492206,0.21533203,-0.8533325,0.79071045,15.734375,-26.0625,16.078125
1635458492244,0.16601562,-1.0081177,0.8085327,13.703125,-28.109375,16.53125
1635458492281,0.22558594,-1.1502075,0.66693115,24.625,3.390625,17.765625
1635458492319,0.22827148,-1.0830688,0.4923706,29.3125,18.453125,24.921875
1635458492357,0.7150879,-1.0278931,0.16766357,54.421875,22.390625,17.109375
1635458492413,0.8010254,-1.092102,0.10003662,26.5625,8.125,4.109375
1635458492450,0.37817383,-0.92071533,0.23040771,15.921875,17.0,-2.984375
1635458492490,0.27807617,-0.7991333,0.21917725,-10.921875,26.921875,1.328125
1635458492525,0.4572754,-0.8196411,0.17401123,-12.953125,24.59375,4.4375
1635458492563,0.5678711,-0.7151489,0.184021,-2.1875,19.828125,-2.25
1635458492600,0.46606445,-0.71832275,0.2008667,-7.828125,22.625,-3.734375
1635458492639,0.45117188,-0.69537354,0.22113037,-15.515625,13.984375,-1.703125
1635458492676,0.40112305,-0.6470337,0.32733154,-11.96875,13.765625,-9.234375
1635458492712,0.35424805,-0.7571411,0.35150146,-15.3125,5.90625,-12.84375
1635458492751,0.44799805,-0.7756958,0.42108154,-25.90625,8.34375,-12.796875
1635458492789,0.3395996,-0.67071533,0.39691162,-14.375,10.109375,-12.25
1635458492844,0.35961914,-0.6958618,0.41864014,-16.578125,-1.21875,-14.28125
1635458492882,0.30517578,-0.63775635,0.5126343,-14.59375,-7.109375,-13.5625
1635458492919,0.22241211,-0.6499634,0.5602417,-17.9375,0.609375,-14.171875
1635458492957,0.20458984,-0.72613525,0.6390991,-19.4375,4.5,-14.609375
1635458492994,0.28735352,-0.90802,0.78240967,-15.96875,2.25,-17.15625
1635458493032,0.30322266,-1.0864868,0.8444214,1.234375,17.78125,-14.015625
1635458493069,0.3215332,-1.1345825,0.8078003,-12.8125,18.609375,-9.453125
1635458493107,0.40161133,-1.142395,0.6559448,-4.640625,14.578125,-4.796875
1635458493144,0.46069336,-1.1919556,0.3427124,0.828125,15.6875,5.40625
1635458493182,0.5065918,-1.1704712,0.1161499,3.734375,18.09375,13.15625
1635458493238,0.44848633,-0.8296509,0.24285889,-4.6875,0.359375,5.875
1635458493275,0.39404297,-0.8045044,0.33953857,2.375,-12.90625,-2.140625
1635458493313,0.4230957,-0.7959595,0.2999878,18.5,-7.015625,2.03125
1635458493350,0.39672852,-0.769104,0.2736206,22.71875,-12.6875,1.71875
1635458493388,0.22387695,-0.8291626,0.36175537,18.078125,-11.71875,-1.859375
1635458493425,0.13110352,-0.8413696,0.34588623,17.6875,-1.984375,-3.5
1635458493463,0.28271484,-0.78912354,0.3204956,14.765625,-3.421875,-3.578125
1635458493500,0.36791992,-0.7852173,0.4003296,8.640625,-10.9375,-0.703125
1635458493556,0.24194336,-0.75909424,0.43865967,11.25,-9.046875,2.71875
1635458493574,0.14379883,-0.7456665,0.35321045,7.21875,-14.28125,4.59375
1635458493670,0.13012695,-0.78082275,0.43450928,-3.53125,-13.5,2.75
1635458493673,0.17700195,-0.83795166,0.49627686,-5.203125,-10.78125,2.765625
1635458493706,0.18676758,-0.76446533,0.5470581,-3.359375,-16.6875,2.265625
1635458493744,0.16870117,-0.79644775,0.6664429,-2.28125,-17.90625,1.90625
1635458493782,0.19311523,-0.98516846,0.7457886,16.046875,-11.96875,11.265625
1635458493819,0.29370117,-1.1235962,0.5812378,21.75,-20.609375,26.546875
1635458493857,0.6660156,-0.96832275,1.1835327,100.6875,-96.5,41.65625
1635458493894,0.22607422,-0.80133057,0.56243896,-30.328125,96.765625,2.71875
1635458493932,0.77001953,-1.0889282,0.2020874,13.0625,51.78125,-19.546875
1635458493968,0.6933594,-1.1621704,-0.29815674,12.21875,26.53125,12.109375
1635458494025,0.4753418,-0.75616455,0.2748413,-17.953125,28.71875,0.5
1635458494063,0.41845703,-0.7424927,0.25360107,-6.9375,13.75,-2.109375
1635458494101,0.3527832,-0.85772705,0.09222412,-11.140625,24.5625,0.90625
1635458494138,0.40795898,-0.7149048,0.05316162,-27.109375,21.375,3.21875
1635458494176,0.53222656,-0.70025635,0.3258667,-18.75,21.171875,-1.71875
1635458494213,0.48657227,-0.74835205,0.3180542,-14.296875,19.046875,-7.625
1635458494250,0.30371094,-0.7764282,0.25164795,-17.5,24.8125,-12.8125
1635458494287,0.3930664,-0.74664307,0.28900146,-33.046875,15.109375,-12.453125
1635458494326,0.43823242,-0.61724854,0.44744873,-35.265625,11.578125,-15.015625
1635458494382,0.3857422,-0.6248169,0.40545654,-24.71875,4.78125,-20.28125
1635458494401,0.26635742,-0.5977173,0.48919678,-14.5,-1.0625,-18.234375
1635458494456,0.42456055,-0.3550415,0.105163574,4.0,-48.078125,-12.921875
1635458494495,0.2841797,-0.63775635,0.6022339,18.734375,-35.6875,-3.4375
1635458494532,0.2775879,-0.83966064,0.78411865,-29.609375,-0.921875,-11.046875
1635458494569,0.1706543,-1.1370239,0.83636475,-2.421875,5.09375,-5.40625
1635458494606,0.44555664,-1.1577759,0.81048584,-2.828125,4.515625,4.90625
1635458494645,0.4477539,-1.131897,0.7206421,-17.625,15.34375,9.109375
1635458494682,0.46728516,-0.9326782,0.33538818,7.25,13.203125,10.234375
1635458494719,0.35009766,-0.9534302,0.14935303,11.375,5.78125,15.28125
1635458494757,0.36499023,-0.96588135,0.1762085,12.328125,-6.5625,10.125
1635458494794,0.38256836,-0.894104,0.38763428,2.078125,-8.765625,-6.546875
1635458494851,0.3083496,-0.8123169,0.37664795,14.828125,0.578125,-4.03125
1635458494888,0.28198242,-0.7444458,0.230896,30.359375,-5.96875,0.484375
1635458494929,0.28979492,-0.82647705,0.3114624,16.5625,-9.625,-1.234375
1635458494964,0.24194336,-0.87506104,0.30950928,9.046875,1.71875,-4.03125
1635458495000,0.2668457,-0.86065674,0.25897217,5.875,-7.59375,-1.625
1635458495037,0.2866211,-0.75445557,0.32806396,1.375,-15.109375,-0.21875
1635458495075,0.21118164,-0.7437134,0.36639404,-5.4375,-12.609375,-0.765625
1635458495113,0.13720703,-0.82281494,0.41986084,-9.515625,-10.09375,-0.84375
1635458495150,0.13989258,-0.8201294,0.50286865,-9.109375,-12.59375,2.796875
1635458495189,0.16674805,-0.8027954,0.62127686,-2.890625,-11.15625,3.0
1635458495244,0.15942383,-0.8887329,0.5934448,2.15625,-15.265625,4.953125
1635458495282,0.23852539,-1.0789185,0.7272339,0.328125,-14.453125,13.75
1635458495319,0.21142578,-1.0671997,0.7357788,5.671875,-6.828125,18.140625
1635458495356,0.27954102,-1.187561,0.66400146,12.921875,-3.703125,7.015625
1635458495394,0.2915039,-1.2127075,0.33392334,16.40625,16.03125,-6.609375
1635458495432,0.43237305,-0.7329712,0.15130615,13.140625,10.953125,0.40625
1635458495469,0.5163574,-0.48150635,0.17449951,8.140625,13.734375,7.625
1635458495507,0.39941406,-0.71588135,0.32635498,12.359375,1.34375,-2.890625
1635458495546,0.38110352,-1.0623169,0.37347412,0.3125,0.390625,-7.953125
1635458495582,0.28466797,-1.0791626,0.44818115,-13.890625,18.65625,-11.609375
1635458495620,0.30078125,-0.76226807,0.39031982,-32.046875,24.9375,-6.390625
1635458495675,0.41333008,-0.5684204,0.3949585,-13.453125,11.90625,-7.203125
1635458495714,0.35839844,-0.7439575,0.51898193,-5.34375,11.5625,-8.328125
1635458495751,0.25756836,-0.82476807,0.50653076,-12.21875,11.234375,-7.765625
1635458495787,0.24365234,-0.70562744,0.47576904,-18.6875,13.453125,-6.078125
1635458495825,0.29614258,-0.7151489,0.5866089,-11.46875,17.546875,-8.5
1635458495865,0.31933594,-0.76031494,0.62957764,-1.703125,16.6875,-9.71875
1635458495901,0.24731445,-0.66192627,0.6286011,-6.390625,21.0,-10.28125
1635458495938,0.2487793,-0.68096924,0.6264038,-2.8125,15.890625,-6.234375
1635458495975,0.26611328,-0.71881104,0.6676636,0.515625,16.75,-4.578125
1635458496013,0.28222656,-0.86724854,0.67645264,4.84375,22.640625,-5.5
1635458496070,0.42504883,-1.0305786,0.6425171,10.078125,21.5625,-7.40625
1635458496106,0.48657227,-1.1091919,0.51776123,3.78125,17.65625,-4.015625
1635458496144,0.4724121,-0.9956665,0.4064331,-3.3125,23.203125,-3.484375
1635458496182,0.6218262,-1.071106,0.21917725,7.890625,14.71875,5.84375
1635458496220,0.47094727,-0.92193604,0.16741943,15.90625,3.453125,1.9375
1635458496257,0.2565918,-0.8987427,0.291687,7.546875,2.390625,-11.359375
1635458496294,0.35229492,-0.9307251,0.35321045,-0.203125,1.046875,-2.859375
1635458496332,0.5070801,-0.7608032,0.25604248,12.40625,-9.609375,7.375
1635458496370,0.38842773,-0.69244385,0.25482178,15.9375,-17.328125,0.703125
1635458496501,0.16821289,-0.89678955,0.3241577,14.046875,-12.703125,-2.6875
1635458496504,0.18359375,-0.9771118,0.32977295,-1.28125,-11.578125,2.6875
1635458496507,0.36938477,-0.85235596,0.39788818,0.40625,-15.09375,4.578125
1635458496538,0.34033203,-0.7908325,0.38763428,11.75,-12.90625,2.6875
1635458496575,0.2331543,-0.76641846,0.3781128,10.484375,-13.875,3.15625
1635458496613,0.21923828,-0.81207275,0.37957764,2.3125,-11.96875,5.953125
1635458496651,0.28637695,-0.7451782,0.37005615,-4.25,-22.484375,5.734375
1635458496692,0.17578125,-0.74468994,0.48529053,-4.890625,-23.140625,-1.84375
1635458496726,0.080078125,-0.85357666,0.6334839,-13.203125,-18.4375,-6.703125
1635458496762,0.053222656,-0.84698486,0.7272339,-2.90625,-9.671875,0.984375
1635458496801,0.25195312,-1.0183716,0.78582764,1.40625,-0.015625,14.5625
1635458496838,0.42578125,-1.1011353,0.793396,19.109375,-0.65625,11.84375
1635458496894,0.36328125,-1.2493286,0.6246948,35.578125,5.84375,0.46875
1635458496932,0.3190918,-1.1560669,0.38494873,20.96875,17.75,1.875
1635458496969,0.48388672,-0.93218994,0.08782959,15.234375,20.3125,13.9375
1635458497006,0.49829102,-0.65997314,0.17401123,10.59375,18.765625,4.953125
1635458497043,0.39208984,-0.88409424,0.26409912,-4.203125,9.375,-2.671875
1635458497081,0.39379883,-0.85235596,0.22113037,-17.828125,17.25,-8.765625
1635458497119,0.37109375,-0.7710571,0.27508545,-19.78125,17.640625,-9.703125
1635458497156,0.40673828,-0.71417236,0.32318115,-17.53125,10.015625,-9.28125
1635458497194,0.3605957,-0.7554321,0.36029053,-10.5,14.421875,-6.921875
1635458497231,0.43066406,-0.7354126,0.39007568,-15.515625,11.734375,-1.8125
1635458497288,0.42578125,-0.71881104,0.4430542,-4.0625,11.484375,-3.046875
1635458497325,0.34985352,-0.71343994,0.40716553,5.59375,8.46875,-1.640625
1635458497363,0.36108398,-0.7000122,0.38885498,5.671875,2.5625,-1.109375
1635458497400,0.34301758,-0.647522,0.42962646,3.1875,4.59375,-2.796875
1635458497438,0.44970703,-0.7119751,0.44281006,-4.296875,-7.828125,0.078125
1635458497475,0.44482422,-0.77056885,0.5397339,-2.8125,-11.78125,-1.5625
1635458497513,0.3161621,-0.8435669,0.58465576,4.859375,-1.78125,-10.328125
1635458497551,0.32202148,-0.8272095,0.5758667,-1.671875,2.359375,-11.421875
1635458497588,0.44091797,-0.9221802,0.63079834,7.09375,0.703125,-5.515625
1635458497625,0.43530273,-1.0252075,0.5770874,15.515625,-4.28125,3.09375
1635458497681,0.36889648,-0.9956665,0.387146,9.703125,-2.09375,8.265625
1635458497719,0.5744629,-1.2114868,0.23602295,-6.515625,-13.515625,18.0
1635458497756,0.3852539,-1.2683716,0.37908936,9.421875,-9.890625,13.140625
1635458497795,0.15771484,-0.85284424,0.3131714,7.28125,-7.609375,0.046875
1635458497831,0.36889648,-0.7959595,0.39642334,-14.125,-21.96875,4.90625
1635458497870,0.49291992,-0.8635864,0.39056396,8.46875,-32.59375,13.53125
1635458497906,0.35302734,-0.89801025,0.21868896,26.078125,-33.71875,11.390625
1635458497944,0.13989258,-0.81085205,0.2333374,16.46875,-26.40625,5.96875
1635458497982,0.109375,-0.7852173,0.32147217,8.0625,-14.8125,3.421875
1635458498019,0.2602539,-0.7678833,0.2814331,5.25,-16.15625,3.703125
1635458498057,0.29003906,-0.8110962,0.4389038,-0.328125,-18.515625,2.5
1635458498113,0.19580078,-0.77911377,0.44744873,-0.921875,-18.59375,-3.0
1635458498150,0.055419922,-0.8413696,0.5228882,-2.625,-6.984375,-7.0
1635458498189,0.13745117,-0.8831177,0.512146,-20.515625,0.171875,-1.5
1635458498226,0.20239258,-0.6917114,0.57806396,-12.515625,-2.265625,0.109375
1635458498263,0.19335938,-0.74664307,0.6442261,-8.625,-3.59375,-6.671875
1635458498301,0.18701172,-0.90948486,0.76116943,6.796875,-7.296875,4.09375
1635458498339,0.28100586,-0.95391846,0.7313843,7.890625,-8.5,19.5625
1635458498376,0.25219727,-0.90948486,0.8114624,13.71875,-8.421875,24.46875
1635458498413,0.20410156,-0.9793091,0.7711792,40.296875,6.5,14.6875
1635458498451,0.16796875,-1.2039185,0.3048706,44.828125,18.234375,9.375
1635458498506,0.46655273,-1.0835571,-0.028381348,21.25,20.390625,10.078125
1635458498544,0.62402344,-0.755188,0.2616577,6.421875,28.4375,2.953125
1635458498582,0.43286133,-0.8098755,0.19818115,-2.0625,24.421875,-2.671875
1635458498618,0.36254883,-1.0159302,0.18817139,-25.609375,12.609375,-7.96875
1635458498656,0.43530273,-0.8845825,0.3241577,-37.84375,22.359375,-16.640625
1635458498694,0.47680664,-0.7300415,0.2994995,-31.484375,19.765625,-16.390625
1635458498732,0.45629883,-0.67926025,0.35687256,-21.5625,15.625,-12.90625
1635458498769,0.35253906,-0.7078247,0.39813232,-11.890625,13.84375,-8.296875
1635458498806,0.32470703,-0.74468994,0.42474365,-17.515625,16.9375,-8.34375
1635458498845,0.359375,-0.6609497,0.41741943,-12.359375,12.1875,-11.109375
1635458498900,0.33544922,-0.59332275,0.46820068,-1.265625,4.34375,-9.921875
1635458498938,0.3244629,-0.6382446,0.5372925,-0.046875,-1.609375,-7.25
1635458498975,0.3244629,-0.7005005,0.54730225,-2.09375,-9.1875,-4.28125
1635458499014,0.2722168,-0.6851196,0.5907593,0.609375,-9.234375,-3.09375
1635458499050,0.12768555,-0.7481079,0.6622925,-1.53125,-3.28125,-4.890625
1635458499088,0.1262207,-0.99346924,0.66522217,-7.4375,5.0,-5.984375
1635458499125,0.21704102,-1.1172485,0.66204834,-8.46875,19.609375,-11.953125
1635458499162,0.39648438,-1.0994263,0.699646,-8.109375,25.390625,-12.15625
1635458499200,0.4350586,-0.95562744,0.7116089,-2.890625,29.109375,-10.625
1635458499238,0.50512695,-0.90167236,0.4845581,5.640625,27.140625,-3.5
1635458499293,0.51342773,-1.1533813,0.24822998,19.203125,15.625,1.78125
1635458499332,0.39575195,-0.97076416,0.2111206,13.65625,8.78125,-3.96875
1635458499369,0.4074707,-0.8401489,0.35150146,4.109375,-2.765625,1.21875
1635458499407,0.45825195,-0.68096924,0.30145264,11.28125,-15.375,5.5625
1635458499445,0.31640625,-0.7432251,0.2694702,24.515625,-18.03125,-4.359375
1635458499482,0.21044922,-0.8921509,0.25946045,25.359375,-18.921875,-1.515625
1635458499519,0.19799805,-0.8904419,0.33050537,9.40625,-9.5,3.84375
1635458499557,0.30029297,-0.798645,0.31243896,3.21875,-10.921875,2.421875
1635458499594,0.2763672,-0.88848877,0.32147217,16.875,-14.46875,-1.453125
1635458499632,0.30004883,-0.9512329,0.31756592,12.125,-18.203125,7.765625
1635458499671,0.28515625,-0.7737427,0.36639404,6.78125,-24.828125,13.484375
1635458499725,0.104003906,-0.7966919,0.41229248,8.65625,-30.375,10.15625
1635458499762,0.061279297,-0.8320923,0.47747803,16.4375,-24.9375,11.328125
1635458499801,-0.028076172,-0.71099854,0.41644287,0.734375,-31.96875,25.125
1635458499838,0.24609375,-0.62628174,0.5477905,-27.546875,-24.25,6.625
1635458499875,0.12548828,-1.0391235,0.73602295,-25.109375,-8.203125,-15.328125
1635458499913,0.04711914,-1.0957642,0.8517456,1.796875,-15.234375,3.53125
1635458499951,0.24365234,-0.89434814,0.7472534,-1.125,-14.203125,16.140625
1635458499988,0.42285156,-1.1995239,0.6117554,7.640625,-1.765625,15.703125
1635458500026,0.7390137,-1.5317993,0.35125732,41.8125,13.96875,0.46875
1635458500062,0.45996094,-0.78375244,0.35321045,17.03125,14.59375,-8.40625
1635458500119,0.23876953,-0.6802368,0.13909912,-9.859375,8.5,6.65625
1635458500157,0.3684082,-0.78448486,0.27215576,-21.71875,8.546875,14.140625
1635458500194,0.56274414,-0.6223755,0.28045654,0.515625,0.125,-3.234375
1635458500232,0.4580078,-0.79522705,0.29730225,1.984375,2.671875,-16.3125
1635458500269,0.19921875,-0.7671509,0.35980225,-17.78125,10.796875,-6.78125
1635458500307,0.2998047,-0.77130127,0.3920288,-15.265625,7.953125,-4.515625
1635458500345,0.37158203,-0.84869385,0.3908081,-10.3125,18.0625,-12.953125
1635458500382,0.44335938,-0.8657837,0.40496826,-15.84375,18.5,-14.078125
1635458500438,0.46240234,-0.8369751,0.4364624,-6.5625,13.0625,-9.609375
1635458500460,0.43164062,-0.79107666,0.42230225,-13.5,10.078125,-9.984375
1635458500512,0.31518555,-0.76763916,0.47747803,-4.671875,13.765625,-14.03125
1635458500551,0.3330078,-0.8464966,0.5162964,-6.5625,10.453125,-10.71875
1635458500588,0.38012695,-0.8064575,0.5009155,-1.5625,8.515625,-10.28125
1635458500626,0.31518555,-0.80474854,0.47576904,9.515625,10.4375,-8.578125
1635458500663,0.2680664,-0.87628174,0.4286499,11.796875,8.671875,-6.46875
1635458500699,0.3310547,-0.9480591,0.41326904,-0.203125,5.609375,-5.109375
1635458500738,0.3322754,-0.8604126,0.4220581,7.109375,5.59375,-2.3125
1635458500776,0.24267578,-0.82525635,0.44525146,4.0,-0.296875,-4.015625
1635458500813,0.22338867,-0.92071533,0.49578857,2.53125,-0.234375,-4.5
1635458500850,0.18896484,-0.90631104,0.49554443,2.703125,4.578125,-3.265625
1635458500887,0.23461914,-0.8899536,0.48944092,-0.453125,4.9375,-2.671875
1635458500944,0.22045898,-0.86309814,0.49993896,1.296875,2.90625,-1.34375
1635458500983,0.19482422,-0.881897,0.5331421,-0.09375,4.359375,-2.5625
1635458501019,0.20922852,-0.8748169,0.5067749,0.578125,7.515625,-1.375
