# Sensor type: Respeck
# Activity type: Descending stairs
# Activity code: 13
# Subject id: s2251802
# Notes: 
timestamp,accel_x,accel_y,accel_z,gyro_x,gyro_y,gyro_z
1635457456194,0.17944336,-0.96417236,0.14056396,2.203125,2.234375,-1.421875
1635457456232,0.1730957,-0.98443604,0.14715576,0.171875,1.203125,-1.671875
1635457456268,0.17089844,-0.9944458,0.1539917,1.203125,0.59375,-0.78125
1635457456305,0.16723633,-0.9812622,0.17108154,-0.25,0.40625,-0.796875
1635457456344,0.15795898,-0.9898071,0.15814209,-0.53125,0.828125,-1.875
1635457456382,0.14453125,-0.9932251,0.16400146,-0.0625,0.5,-1.140625
1635457456475,0.13183594,-0.9768677,0.17132568,-0.5625,2.109375,-1.640625
1635457456484,0.13745117,-0.97369385,0.1642456,0.140625,2.953125,-2.5
1635457456513,0.11303711,-1.010315,0.16448975,0.921875,3.03125,-1.984375
1635457456552,0.104003906,-0.9883423,0.17132568,1.125,3.40625,-2.234375
1635457456589,0.11791992,-0.98223877,0.16009521,1.359375,3.15625,-2.234375
1635457456625,0.12011719,-0.9968872,0.15545654,2.0,1.453125,-1.296875
1635457456665,0.12011719,-1.0061646,0.15789795,2.28125,0.359375,-0.578125
1635457456699,0.10986328,-0.99884033,0.13983154,3.546875,1.9375,0.40625
1635457456737,0.17456055,-0.94903564,0.10809326,4.171875,2.3125,0.734375
1635457456776,0.23144531,-0.8604126,0.10101318,5.71875,0.3125,1.5
1635457456831,0.16503906,-0.81817627,0.2333374,1.25,1.984375,-1.8125
1635457456869,0.040039062,-1.0894165,0.19256592,9.609375,-5.359375,-6.875
1635457456906,0.12768555,-1.0838013,0.2062378,18.453125,-3.546875,2.5
1635457456945,0.106933594,-0.9951782,0.29632568,1.46875,-2.875,-3.953125
1635457456981,-0.0026855469,-1.164856,0.35272217,4.703125,-0.875,-3.0
1635457457019,0.01171875,-1.1004028,0.27020264,8.78125,0.796875,4.109375
1635457457056,0.16333008,-0.9102173,0.1864624,5.875,5.84375,3.140625
1635457457094,0.13305664,-0.847229,0.18450928,0.765625,4.140625,1.921875
1635457457131,0.079589844,-0.7761841,0.17962646,-1.078125,2.265625,0.796875
1635457457170,0.05102539,-0.71539307,0.19329834,-3.859375,7.0,-3.71875
1635457457206,0.03857422,-0.57769775,0.18914795,0.515625,13.28125,-6.65625
1635457457263,0.07080078,-0.5132446,0.1864624,-1.5625,14.125,-6.421875
1635457457299,0.041015625,-0.78131104,0.19451904,-1.328125,1.3125,-16.6875
1635457457337,0.025878906,-1.0811157,0.277771,1.765625,9.0625,-21.609375
1635457457374,0.118896484,-1.0410767,0.2982788,1.59375,-0.515625,-4.3125
1635457457416,0.1875,-1.0852661,0.21429443,-9.859375,-13.296875,-10.234375
1635457457451,0.29077148,-1.5586548,-0.06329346,6.859375,-13.390625,0.78125
1635457457487,0.14819336,-1.1089478,0.0018920898,-9.671875,10.984375,8.90625
1635457457524,0.26464844,-1.7036743,0.07977295,12.890625,2.203125,6.078125
1635457457562,0.18432617,-1.2732544,0.03656006,-9.21875,-12.921875,6.09375
1635457457600,-0.11010742,-1.190979,0.22747803,-12.15625,-0.171875,-9.21875
1635457457656,0.060302734,-1.0388794,0.20941162,8.078125,2.125,0.59375
1635457457693,0.06738281,-0.6917114,0.04510498,1.640625,0.359375,1.171875
1635457457732,-0.05102539,-0.7456665,0.06463623,6.0,1.109375,-1.5
1635457457769,-0.08569336,-0.88946533,0.117370605,-1.765625,-1.078125,3.015625
1635457457808,0.022949219,-0.75006104,0.054138184,9.5,-1.65625,8.09375
1635457457844,0.17260742,-0.5418091,0.12249756,0.515625,-3.890625,11.3125
1635457457882,-0.17675781,-0.7600708,0.19744873,-23.625,-14.125,8.390625
1635457457919,-0.21679688,-0.8345337,0.116882324,6.640625,-5.53125,13.671875
1635457457956,0.10961914,-0.72857666,0.16351318,-2.109375,5.296875,5.484375
1635457457995,0.045166016,-0.75006104,0.10491943,-3.96875,14.515625,2.1875
1635457458053,0.37158203,-1.4736938,-0.16314697,26.9375,16.109375,-8.15625
1635457458087,0.5061035,-1.5230103,0.35784912,7.6875,1.78125,2.078125
1635457458144,0.5019531,-1.8731079,0.3361206,-14.4375,15.546875,-7.234375
1635457458163,-0.048828125,-1.6211548,0.26849365,10.75,6.921875,-0.75
1635457458200,0.2175293,-1.017395,0.20819092,-0.578125,1.921875,12.671875
1635457458240,0.2553711,-0.739563,0.23138428,4.59375,4.65625,-5.671875
1635457458275,0.16748047,-0.6716919,0.21136475,3.109375,1.40625,6.984375
1635457458312,0.07128906,-0.6260376,0.14715576,7.734375,-0.8125,5.078125
1635457458351,0.064697266,-0.56573486,0.008972168,11.53125,10.296875,-0.671875
1635457458388,0.11987305,-0.5852661,0.030944824,0.984375,17.5625,-8.796875
1635457458425,0.11010742,-0.47418213,0.2579956,-5.203125,17.28125,-15.53125
1635457458481,0.12426758,-0.7371216,0.2255249,-5.0,-4.25,-18.4375
1635457458519,-0.0056152344,-1.0925903,0.2765503,9.625,2.609375,-25.390625
1635457458556,0.2121582,-0.9492798,0.16326904,1.8125,1.265625,5.296875
1635457458594,0.23730469,-1.0567017,0.040222168,-6.4375,5.796875,-4.109375
1635457458630,0.4272461,-1.9231567,-0.08795166,23.09375,-17.984375,3.796875
1635457458672,0.0949707,-1.7024536,0.18182373,-20.6875,-8.078125,5.03125
1635457458706,0.17578125,-1.5059204,0.1564331,-6.453125,3.53125,1.109375
1635457458744,0.26879883,-1.2376099,0.039245605,-3.171875,-2.5,-0.09375
1635457458783,0.08984375,-0.98321533,0.19158936,-13.734375,-13.359375,-4.59375
1635457458820,-0.13232422,-0.8250122,0.07659912,0.40625,-2.28125,2.75
1635457458875,0.020019531,-0.6856079,0.066345215,7.578125,0.640625,2.5625
1635457458931,-0.006591797,-0.6030884,0.057800293,4.703125,-0.5,2.984375
1635457458952,-0.00390625,-0.51934814,0.06829834,4.65625,-0.5,5.359375
1635457458988,-0.017089844,-0.5532837,0.1630249,3.1875,-4.640625,5.9375
1635457459025,-0.013427734,-0.861145,0.12347412,3.578125,-14.984375,13.859375
1635457459063,-0.17407227,-0.847229,0.06463623,-11.171875,-11.171875,16.25
1635457459100,-0.068847656,-0.65045166,0.30999756,-10.296875,-2.0,-1.46875
1635457459141,0.2536621,-0.7686157,0.07220459,-8.0625,5.609375,2.171875
1635457459176,0.6633301,-1.9263306,-0.014221191,9.859375,3.484375,-16.1875
1635457459213,0.35180664,-1.6367798,0.4784546,0.171875,3.65625,9.875
1635457459270,0.15454102,-1.7869263,0.36517334,-2.015625,0.796875,-19.4375
1635457459309,0.12402344,-1.229065,0.3475952,2.359375,11.5625,5.71875
1635457459345,0.06274414,-0.9656372,0.22772217,-2.859375,0.3125,-4.515625
1635457459382,0.20874023,-0.8491821,0.28485107,5.53125,8.921875,-4.03125
1635457459419,0.10058594,-0.6548462,0.2189331,-0.078125,12.03125,5.390625
1635457459456,-0.040771484,-0.43536377,0.046325684,5.25,15.296875,-0.484375
1635457459495,0.008056641,-0.4541626,0.08856201,-1.453125,19.703125,-7.421875
1635457459531,0.080078125,-0.46514893,0.18255615,-0.5,22.03125,-21.578125
1635457459569,0.13134766,-0.5154419,0.15325928,7.515625,11.1875,-12.578125
1635457459607,0.25097656,-0.8518677,0.013366699,7.390625,3.96875,-3.15625
1635457459644,0.14111328,-0.87823486,0.29534912,-2.109375,3.734375,-5.1875
1635457459700,0.62158203,-2.0,-0.3616333,19.03125,-42.4375,-6.5625
1635457459737,0.032958984,-1.4094849,-0.074035645,-28.875,7.859375,18.75
1635457459775,0.110839844,-1.859436,0.34417725,-13.296875,-0.515625,-16.953125
1635457459813,0.16772461,-1.329895,0.3859253,-16.75,3.1875,8.75
1635457459851,0.07470703,-1.0359497,0.35028076,-10.59375,-0.296875,-5.34375
1635457459888,-0.1730957,-0.98150635,0.121276855,-1.953125,4.09375,-2.0625
1635457459925,0.06323242,-0.6277466,0.101257324,13.6875,-2.28125,7.578125
1635457459963,0.12597656,-0.53790283,0.1083374,6.53125,-2.203125,3.234375
1635457460000,0.013183594,-0.77545166,0.03656006,3.984375,-12.65625,6.09375
1635457460038,0.030273438,-0.58917236,0.15814209,6.125,-17.40625,9.671875
1635457460094,-0.24169922,-0.59161377,0.26434326,-4.21875,-10.9375,6.0
1635457460132,-0.21533203,-0.8713989,0.1473999,8.59375,-12.203125,4.6875
1635457460169,0.118896484,-0.63775635,0.14642334,3.40625,-1.578125,2.921875
1635457460206,0.16064453,-0.84381104,-0.033996582,1.640625,-6.046875,-3.921875
1635457460246,0.4326172,-1.7127075,0.28533936,10.453125,-13.53125,-19.53125
1635457460281,0.38476562,-1.4880981,0.27581787,4.203125,4.578125,15.3125
1635457460319,0.06347656,-1.8977661,0.49627686,-3.140625,-7.234375,-23.203125
1635457460356,0.040771484,-1.3482056,0.40057373,8.546875,13.171875,5.890625
1635457460393,0.051757812,-0.89630127,0.24627686,-4.25,9.671875,1.96875
1635457460432,0.1171875,-0.75177,0.2164917,8.609375,10.40625,0.65625
1635457460488,0.21679688,-0.7776489,0.2592163,5.546875,8.84375,7.78125
1635457460525,0.07788086,-0.6531372,0.19403076,3.484375,6.875,3.21875
1635457460563,0.06201172,-0.52667236,0.08392334,5.328125,10.96875,-0.078125
1635457460604,0.10083008,-0.41973877,0.14642334,3.046875,19.390625,-12.5
1635457460638,0.06518555,-0.7720337,0.14154053,4.328125,13.015625,-15.71875
1635457460676,0.21289062,-0.6567993,0.15985107,12.953125,2.9375,3.359375
1635457460712,0.12402344,-0.7859497,0.18109131,-12.9375,-0.09375,-11.9375
1635457460750,0.17236328,-1.5523071,0.21209717,-2.53125,-8.84375,-15.625
1635457460788,0.52368164,-1.4651489,-0.09283447,21.34375,-2.234375,23.140625
1635457460825,-0.3881836,-1.3091431,0.31585693,-22.640625,2.671875,-8.796875
1635457460863,0.45874023,-2.0,0.38739014,8.09375,-5.671875,7.015625
1635457460919,0.2680664,-1.1194458,0.04486084,-15.578125,-9.515625,9.078125
1635457460956,-0.4230957,-0.97052,0.37835693,-17.734375,1.125,-18.734375
1635457460994,0.08251953,-1.0125122,0.19940186,16.78125,9.609375,5.4375
1635457461031,0.29760742,-0.60723877,0.081726074,1.1875,-4.4375,3.890625
1635457461069,-0.16845703,-0.487854,0.07122803,-3.109375,-0.9375,-0.84375
1635457461106,-0.110839844,-0.7280884,0.17108154,9.296875,-8.125,3.53125
1635457461144,0.021240234,-0.34552002,0.101989746,-1.4375,-7.5,9.375
1635457461181,-0.12011719,-0.6231079,0.120788574,-0.359375,3.515625,7.609375
1635457461219,-0.11010742,-0.82940674,0.22137451,-2.625,-7.796875,6.5
1635457461256,0.2919922,-1.1624146,-0.12896729,6.53125,4.140625,-14.875
1635457461332,0.85498047,-2.0,0.47113037,17.484375,2.140625,-8.609375
1635457461350,0.51464844,-1.4197388,0.34613037,-15.0,-13.421875,12.1875
1635457461388,-0.5180664,-1.5432739,0.2819214,18.875,-4.375,-15.828125
1635457461424,0.3088379,-1.6463013,0.387146,17.65625,14.734375,13.296875
1635457461462,0.2878418,-0.90704346,0.26898193,-7.0,10.953125,-0.671875
1635457461500,-0.107910156,-0.68829346,0.19012451,4.609375,16.765625,7.234375
1635457461542,0.039794922,-0.54766846,0.10882568,7.390625,12.515625,7.53125
1635457461574,0.2163086,-0.5430298,0.20574951,4.84375,8.40625,-2.84375
1635457461612,0.030761719,-0.68048096,0.199646,-4.59375,15.671875,-6.0625
1635457461651,0.100097656,-0.47906494,0.168396,5.90625,7.921875,-7.625
1635457461744,0.12866211,-0.6433716,0.18035889,-1.375,9.671875,-23.609375
1635457461746,0.08569336,-0.9343872,0.11077881,13.71875,-3.859375,-8.125
1635457461781,0.09814453,-0.61065674,0.17547607,0.5,4.203125,-2.6875
1635457461819,0.10473633,-1.3008423,0.16619873,-9.375,5.03125,-12.53125
1635457461875,0.7192383,-1.8777466,-0.23809814,34.859375,-1.375,26.671875
1635457461896,-0.07299805,-1.5391235,0.27581787,-23.671875,-21.984375,-0.546875
1635457461931,0.020263672,-1.4868774,0.3949585,-12.515625,0.296875,2.53125
1635457461970,0.1875,-1.2637329,0.07757568,-4.546875,-2.515625,-0.03125
1635457462007,-0.07128906,-0.99835205,0.29681396,-7.609375,-10.828125,-10.25
1635457462044,-0.041015625,-0.91900635,0.13616943,4.71875,-8.28125,8.984375
1635457462122,0.057617188,-0.8206177,0.13763428,0.421875,-8.09375,3.4375
1635457462137,-0.1550293,-0.75201416,0.07952881,-2.859375,-7.53125,5.421875
1635457462175,-0.04345703,-0.5713501,0.1918335,1.5,-2.625,7.546875
1635457462213,-0.026855469,-0.5462036,0.23699951,-8.75,2.265625,9.90625
1635457462250,-0.18237305,-0.8381958,0.06097412,-2.9375,-1.5,13.84375
1635457462287,0.07373047,-0.8152466,0.20159912,3.046875,2.4375,14.390625
1635457462326,-0.107666016,-0.7839966,0.2321167,-20.40625,11.484375,-5.25
1635457462363,0.17236328,-0.8718872,-0.06036377,19.875,13.71875,2.09375
1635457462400,0.77685547,-1.7371216,0.14422607,-4.421875,17.390625,-26.203125
1635457462456,0.7753906,-2.0,0.47576904,-0.3125,17.015625,-4.5
1635457462475,-0.08520508,-1.1380005,0.3624878,-9.71875,2.859375,-8.65625
1635457462532,0.012451172,-1.1445923,0.15716553,23.515625,26.078125,10.84375
1635457462569,0.2932129,-0.9343872,0.26116943,-3.921875,-1.09375,11.859375
1635457462606,0.09448242,-0.8464966,0.17449951,3.90625,28.390625,6.140625
1635457462644,0.1875,-0.7918091,0.11444092,5.09375,19.671875,15.75
1635457462680,0.26879883,-0.7661743,0.15252686,-3.734375,19.765625,-1.5625
1635457462717,0.22875977,-0.9944458,0.12884521,5.53125,24.078125,-2.15625
