# Sensor type: Respeck
# Activity type: Movement
# Activity code: 9
# Subject id: s2251802
# Notes: 
timestamp,accel_x,accel_y,accel_z,gyro_x,gyro_y,gyro_z
1635457330324,0.096191406,-0.99053955,0.1642456,5.0625,2.46875,2.90625
1635457330387,0.10229492,-0.98223877,0.14959717,4.53125,3.984375,2.765625
1635457330419,0.09448242,-0.9961548,0.1383667,3.921875,3.640625,3.203125
1635457330456,0.103515625,-0.9890747,0.1564331,6.40625,5.09375,4.140625
1635457330494,0.13232422,-0.98223877,0.13250732,4.703125,4.078125,5.125
1635457330531,0.14916992,-0.98272705,0.15570068,4.953125,6.0,6.65625
1635457330570,0.23706055,-0.93585205,0.13934326,6.875,2.0,8.203125
1635457330606,0.2290039,-0.92071533,0.17523193,3.671875,-1.515625,6.984375
1635457330644,0.16088867,-1.041565,0.21990967,1.109375,-2.703125,3.53125
1635457330681,0.11352539,-1.1189575,0.18548584,9.078125,0.921875,4.984375
1635457330718,0.24243164,-1.041565,0.1395874,10.328125,2.4375,7.859375
1635457330778,0.22583008,-0.9619751,0.17401123,2.484375,-0.46875,6.375
1635457330813,0.20263672,-0.9246216,0.17156982,2.921875,0.28125,6.359375
1635457330850,0.20800781,-0.98565674,0.17767334,4.40625,0.875,5.0
1635457330907,0.24243164,-0.9985962,0.15301514,4.4375,-0.6875,4.296875
1635457330925,0.18554688,-0.9907837,0.1918335,0.921875,3.484375,1.765625
1635457330962,0.1862793,-1.0237427,0.1749878,2.9375,5.484375,2.265625
1635457331001,0.1875,-0.9614868,0.2164917,2.953125,4.984375,0.734375
1635457331036,0.1875,-0.9116821,0.1708374,6.234375,5.421875,2.96875
1635457331074,0.13085938,-0.85772705,0.20452881,-0.140625,9.328125,0.671875
1635457331112,0.103759766,-0.86016846,0.19378662,4.3125,13.46875,1.9375
1635457331207,0.10644531,-0.8242798,0.21234131,2.046875,17.609375,-0.421875
1635457331212,0.12451172,-0.7974243,0.2189331,3.40625,23.390625,-1.8125
1635457331244,0.044189453,-0.7720337,0.22821045,4.953125,23.359375,-3.96875
1635457331280,0.13183594,-0.8303833,0.28656006,8.46875,22.140625,-3.234375
1635457331321,0.072021484,-0.89434814,0.3192749,8.8125,24.015625,-6.796875
1635457331356,0.18188477,-0.99835205,-0.06842041,32.859375,17.25,-1.0
1635457331394,0.46020508,-1.3755493,-0.46905518,54.140625,13.5625,18.0625
1635457331431,0.82592773,-1.3872681,-0.536438,47.46875,0.828125,43.203125
1635457331469,0.12817383,-0.894104,-0.43023682,28.453125,10.46875,24.3125
1635457331506,0.49291992,-0.7407837,-0.5108032,63.953125,17.78125,14.015625
1635457331544,1.0144043,-1.0144653,-0.5803833,40.703125,-22.1875,22.046875
1635457331600,0.19604492,-0.85601807,-0.29278564,-4.46875,-13.453125,-1.859375
1635457331638,-0.111328125,-0.8242798,-0.33428955,34.921875,-11.3125,4.21875
1635457331675,0.45214844,-0.8887329,-0.425354,29.03125,-1.4375,3.75
1635457331718,0.6171875,-0.9224243,-0.3340454,-0.59375,-4.296875,-5.140625
1635457331751,0.32739258,-0.85162354,-0.34283447,-22.484375,2.375,-16.8125
1635457331788,0.25805664,-0.8208618,-0.32867432,-9.375,3.859375,-11.046875
1635457331825,0.4099121,-0.92681885,-0.378479,-12.984375,4.5,-11.359375
1635457331862,0.40893555,-0.8921509,-0.30133057,-30.234375,5.96875,-15.5
1635457331900,0.32983398,-0.82281494,-0.2498169,-24.609375,2.3125,-17.171875
1635457331938,0.32348633,-0.98394775,-0.19415283,-26.03125,1.28125,-13.09375
1635457331994,0.28735352,-0.9837036,-0.18829346,-24.71875,-11.15625,-11.0625
1635457332032,0.27563477,-0.92144775,-0.22076416,-17.921875,-14.640625,-10.78125
1635457332069,0.3334961,-0.8867798,-0.10479736,-23.109375,-15.71875,-7.421875
1635457332107,0.14916992,-0.77960205,0.03704834,-17.15625,-20.140625,-6.46875
1635457332144,0.064208984,-0.87994385,0.030212402,-9.921875,-21.0,-7.3125
1635457332182,0.053955078,-0.788147,-0.02178955,-6.703125,-16.25,0.25
1635457332219,0.122802734,-0.7070923,0.017028809,-3.5,-14.5,6.3125
1635457332260,0.30273438,-0.84039307,0.17791748,-1.265625,-23.5625,14.46875
1635457332294,0.3100586,-0.93536377,0.14813232,-13.203125,-28.671875,14.34375
1635457332332,0.12646484,-0.9380493,0.004333496,-15.59375,-30.015625,10.453125
1635457332388,0.3803711,-1.1626587,-0.15484619,-8.921875,-30.4375,14.578125
1635457332425,0.765625,-1.6516724,-0.015686035,-4.046875,-6.703125,8.140625
1635457332463,0.35668945,-1.4160767,-0.20587158,14.09375,24.859375,12.546875
1635457332500,0.21264648,-1.0842896,-0.21636963,15.859375,18.46875,23.109375
1635457332539,0.31030273,-0.5039673,0.18377686,-12.484375,25.390625,22.34375
1635457332575,0.2602539,-0.7612915,-0.04107666,-2.734375,19.328125,8.84375
1635457332613,0.4560547,-0.85528564,-0.074279785,-4.9375,9.9375,8.28125
1635457332652,0.46972656,-0.65802,0.09197998,-9.25,17.328125,1.390625
1635457332689,0.4880371,-0.8411255,0.030212402,-2.4375,24.328125,-5.796875
1635457332725,0.5151367,-0.972229,-0.11871338,0.625,24.265625,-7.921875
1635457332781,0.41308594,-0.8855591,-0.062316895,-11.546875,28.109375,-10.28125
1635457332820,0.33520508,-0.90582275,-0.06500244,-10.890625,35.765625,-12.765625
1635457332857,0.32788086,-0.9006958,-0.024963379,-17.25,38.765625,-9.234375
1635457332894,0.24707031,-0.8491821,0.042419434,-23.078125,44.75,-13.453125
1635457332931,0.23852539,-0.9104614,-0.0020141602,-14.75,41.875,-11.984375
1635457332969,0.1850586,-0.90582275,0.05267334,-19.765625,44.90625,-13.71875
1635457333005,0.15673828,-0.8242798,0.07952881,-15.46875,38.734375,-11.234375
1635457333044,0.020507812,-0.82525635,0.12200928,-12.640625,41.046875,-13.9375
1635457333081,-0.01586914,-0.76348877,0.12225342,1.0625,41.6875,-12.96875
1635457333119,-0.016357422,-0.8699341,0.08270264,-1.265625,46.640625,-14.8125
1635457333156,-0.22192383,-0.91973877,0.07220459,3.0625,59.265625,-18.671875
1635457333212,0.4255371,-0.8340454,-0.3880005,42.390625,40.234375,-18.21875
1635457333250,1.4958496,-2.0,-0.8960571,80.25,-10.78125,28.921875
1635457333289,0.829834,-0.9404907,-0.12017822,-9.9375,-17.328125,-18.1875
1635457333325,0.0390625,-0.66656494,-0.37945557,44.03125,13.890625,-34.5
1635457333363,0.8195801,-1.6936646,-0.24493408,22.734375,-28.59375,5.203125
1635457333400,0.5878906,-0.7276001,-0.05718994,-21.53125,-43.859375,-10.34375
1635457333437,-0.32250977,-0.4024048,-0.20928955,21.25,-3.828125,-20.234375
1635457333474,0.32226562,-0.94610596,-0.28863525,19.40625,-20.75,-13.359375
1635457333513,0.7714844,-0.8179321,-0.13214111,0.1875,-36.8125,-18.4375
1635457333552,0.32006836,-0.68414307,-0.26885986,-9.5625,-46.453125,-16.078125
1635457333626,0.29077148,-0.86016846,-0.25665283,-5.84375,-60.421875,-15.875
1635457333645,0.49145508,-0.9907837,-0.22369385,-0.25,-70.265625,-11.28125
1635457333680,0.3347168,-0.99664307,-0.2354126,-6.015625,-74.109375,-12.34375
1635457333719,0.1628418,-0.9507446,-0.07745361,1.640625,-74.8125,-12.484375
1635457333758,0.18017578,-1.0081177,-0.06842041,5.484375,-76.109375,-9.15625
1635457333794,0.09033203,-0.94659424,-0.047424316,3.546875,-71.296875,-4.859375
1635457333831,-0.0061035156,-0.94854736,0.08441162,4.625,-64.890625,-1.671875
1635457333869,-0.037109375,-0.9480591,0.18597412,12.359375,-52.625,1.71875
1635457333906,-0.08886719,-0.98321533,0.1906128,10.84375,-39.234375,0.6875
1635457333944,-0.01953125,-0.96954346,0.1918335,14.84375,-33.265625,3.859375
1635457334003,-0.036376953,-0.86187744,0.26239014,9.546875,-27.671875,3.4375
1635457334038,2.4414062E-4,-0.78985596,0.21624756,15.453125,-16.359375,6.421875
1635457334075,0.07397461,-0.73931885,0.16278076,15.015625,-19.078125,12.25
1635457334112,0.30151367,-0.5322876,0.055603027,-8.328125,-3.4375,10.453125
1635457334150,0.23706055,-1.5940552,-0.3706665,-25.453125,-34.078125,9.8125
1635457334189,0.73950195,-1.5750122,-0.29034424,38.046875,13.640625,-3.609375
1635457334225,0.76904297,-1.6201782,-0.43780518,26.5625,30.578125,7.84375
1635457334263,0.19555664,-1.0567017,-0.07623291,-17.578125,-14.484375,14.015625
1635457334299,0.115722656,-0.7217407,0.14959717,5.734375,0.984375,-1.015625
1635457334337,0.40307617,-0.9661255,0.026062012,-0.96875,-4.09375,0.484375
1635457334375,0.2849121,-0.7654419,-0.045715332,-16.71875,-4.171875,-7.109375
1635457334432,0.16479492,-0.7654419,0.03704834,-9.78125,2.5,-5.3125
1635457334469,0.22607422,-0.9277954,0.0692749,-12.953125,3.375,-4.984375
1635457334510,0.2578125,-0.9060669,0.03778076,-16.90625,15.15625,-9.40625
1635457334544,0.21801758,-0.9517212,0.07635498,-13.40625,12.28125,-10.96875
1635457334581,0.20263672,-0.9002075,0.121032715,-9.953125,17.6875,-9.765625
1635457334618,0.09423828,-0.89141846,0.15472412,-14.203125,27.1875,-13.859375
1635457334656,0.099365234,-0.8428345,0.17596436,-5.296875,29.234375,-15.484375
1635457334693,0.16064453,-0.8335571,0.15716553,-6.296875,20.1875,-15.65625
1635457334731,0.27172852,-0.7974243,0.16033936,-4.65625,22.578125,-5.015625
1635457334770,0.26660156,-0.8340454,0.22283936,2.5625,12.0625,0.203125
1635457334824,0.08959961,-0.8850708,0.15570068,-1.109375,11.90625,3.59375
1635457334863,0.22949219,-0.9536743,-0.25250244,21.359375,2.140625,11.21875
1635457334900,1.2893066,-2.0,-0.70928955,62.796875,-27.1875,43.9375
1635457334938,-0.45507812,-1.2937622,-0.0020141602,-34.921875,-10.71875,36.03125
1635457334975,-0.31591797,-0.46905518,-0.29571533,72.0,54.703125,-14.734375
1635457335013,1.3579102,-1.2876587,-0.68341064,41.96875,-13.8125,49.765625
1635457335050,0.20385742,-0.6231079,0.105163574,-40.15625,-0.015625,-12.640625
1635457335088,-0.54711914,-0.73223877,-0.13897705,19.234375,0.828125,-1.171875
1635457335125,0.2578125,-1.0073853,-0.2546997,32.078125,-2.109375,3.390625
1635457335162,0.55444336,-0.9932251,-0.2991333,1.6875,1.21875,-1.640625
1635457335218,0.18383789,-0.942688,-0.17974854,-7.875,9.984375,-5.234375
1635457335256,0.092041016,-0.9717407,-0.09039307,-1.703125,8.1875,-6.625
1635457335294,0.1977539,-1.0142212,-0.058654785,-1.765625,14.3125,-10.140625
1635457335331,0.14086914,-1.039856,-0.15216064,-4.015625,18.015625,-8.328125
1635457335369,0.17163086,-0.9734497,-0.12579346,-6.25,20.84375,-4.0
1635457335406,0.19458008,-0.9692993,-0.08917236,-4.828125,22.953125,-2.765625
1635457335444,0.14477539,-0.99005127,-0.09283447,-9.8125,23.015625,-2.5625
1635457335481,0.12646484,-0.95025635,-0.06427002,-9.890625,21.296875,-3.15625
1635457335519,0.0769043,-0.90338135,-0.0569458,-11.296875,23.125,-1.828125
1635457335557,0.076660156,-0.95440674,-0.04888916,-7.109375,15.5625,-3.65625
1635457335594,0.13427734,-0.87286377,-0.03643799,-5.921875,5.671875,5.296875
1635457335650,0.013671875,-0.78131104,-0.062561035,-10.90625,1.46875,9.6875
1635457335687,-0.024658203,-0.8345337,1.8310547E-4,-9.125,2.875,14.1875
1635457335725,0.028564453,-0.9326782,0.024841309,-7.890625,-1.8125,15.359375
1635457335763,0.07299805,-0.94976807,0.11590576,-22.078125,-2.9375,9.59375
1635457335801,-0.1772461,-0.96539307,0.13568115,-27.671875,-9.015625,-1.75
1635457335838,0.14379883,-1.1853638,-0.40167236,22.0625,-0.21875,8.0
1635457335879,0.75512695,-1.5200806,0.016296387,-22.046875,45.90625,7.1875
1635457335912,0.8586426,-1.5911255,0.05291748,8.828125,50.6875,1.90625
1635457335950,0.16186523,-1.0620728,-0.16021729,-11.59375,32.9375,7.328125
1635457335986,0.24829102,-0.6987915,0.09515381,-12.421875,37.25,10.140625
1635457336044,0.39892578,-0.9829712,0.053649902,-14.984375,31.890625,1.140625
1635457336081,0.31884766,-0.8740845,-0.1975708,-14.859375,34.953125,-8.1875
1635457336119,0.37597656,-0.65704346,0.042663574,-28.921875,28.453125,-1.09375
1635457336156,0.40551758,-0.74298096,0.066589355,-16.109375,32.0,-15.59375
1635457336193,0.27368164,-0.9446411,-0.04058838,-17.6875,30.171875,-14.25
1635457336231,0.30517578,-0.95977783,0.007751465,-16.171875,32.0,-11.5
1635457336269,0.34643555,-0.9480591,0.074401855,-8.84375,28.921875,-15.765625
1635457336306,0.3149414,-0.9546509,0.09246826,-7.53125,29.15625,-12.3125
1635457336344,0.18457031,-0.88116455,0.038513184,-8.53125,24.875,-8.421875
1635457336381,0.19018555,-0.8076782,0.11907959,-2.078125,28.890625,-5.453125
1635457336439,0.111816406,-0.8167114,0.06732178,-1.234375,27.234375,-8.34375
1635457336477,0.12133789,-0.80670166,0.1671753,1.828125,18.75,-5.703125
1635457336513,0.20654297,-0.7227173,0.16595459,4.609375,19.390625,-3.515625
1635457336550,-0.061035156,-0.92510986,0.12445068,7.953125,21.921875,-7.53125
1635457336587,0.041748047,-0.9649048,0.13641357,19.34375,14.1875,0.765625
1635457336625,0.1105957,-0.8115845,-0.026916504,24.9375,22.609375,4.15625
1635457336663,0.45898438,-1.0288696,-0.39312744,56.84375,-9.265625,8.90625
1635457336699,0.8659668,-1.8550415,-0.1651001,41.234375,-16.65625,35.15625
1635457336738,-0.013671875,-1.0203247,-0.0803833,19.546875,-4.734375,10.4375
1635457336774,0.31958008,-0.9224243,-0.5203247,65.078125,13.734375,14.921875
1635457336812,0.85424805,-1.197815,-0.4258423,25.734375,-10.59375,13.859375
1635457336869,0.3347168,-0.9241333,-0.09942627,-0.546875,-13.96875,-10.875
1635457336907,0.024414062,-0.8128052,-0.32989502,21.3125,-8.828125,-0.6875
1635457336944,0.3527832,-0.8845825,-0.39239502,12.65625,-16.796875,-2.5625
1635457336982,0.48608398,-0.8530884,-0.2852173,-0.109375,-21.9375,-10.765625
1635457337019,0.25463867,-0.82354736,-0.29156494,-11.46875,-15.515625,-13.03125
1635457337057,0.18798828,-0.8701782,-0.27593994,-5.765625,-17.0,-11.875
1635457337095,0.3515625,-0.8953247,-0.23370361,-8.5625,-18.9375,-13.671875
1635457337131,0.2590332,-0.8862915,-0.1819458,-14.296875,-19.84375,-17.25
1635457337170,0.20727539,-0.9680786,-0.17486572,-7.6875,-23.5,-17.53125
1635457337206,0.25463867,-0.9981079,-0.12628174,-9.484375,-26.921875,-17.390625
1635457337262,0.2133789,-0.89312744,-0.1104126,-10.328125,-17.25,-16.0625
1635457337300,0.05102539,-0.96954346,-0.085510254,-9.59375,-11.1875,-16.484375
1635457337338,0.11254883,-0.9788208,-0.10723877,-8.734375,-9.25,-13.046875
1635457337375,0.13769531,-0.85406494,-0.011779785,-9.875,-6.796875,-8.03125
1635457337412,0.13378906,-0.895813,-0.051086426,-7.921875,-12.21875,-6.546875
1635457337450,0.025634766,-0.87945557,0.043395996,-11.015625,-9.953125,-1.296875
1635457337487,-0.01586914,-0.8467407,0.08392334,-4.671875,-11.203125,3.984375
1635457337525,0.05883789,-0.8196411,0.11785889,-2.296875,-12.171875,8.09375
1635457337564,0.0048828125,-0.911438,0.11029053,3.4375,-10.328125,11.5625
1635457337599,0.045898438,-1.0523071,0.047790527,5.4375,-13.375,13.671875
1635457337656,0.052734375,-0.8272095,0.038024902,2.078125,-11.21875,17.875
1635457337694,0.25805664,-1.0449829,-0.32574463,28.359375,-8.4375,14.375
1635457337731,0.63671875,-1.0440063,-0.046447754,-2.953125,8.84375,16.65625
1635457337769,0.62280273,-1.3167114,-0.105773926,25.09375,-6.546875,24.34375
1635457337810,0.47558594,-1.2268677,-0.12701416,27.53125,7.015625,30.03125
1635457337844,0.4333496,-1.0689087,-0.12872314,-2.390625,-0.96875,23.078125
1635457337882,0.32080078,-0.9998169,-0.06427002,10.4375,18.40625,11.65625
1635457337919,0.5686035,-0.9155884,-0.11236572,-2.359375,14.21875,12.359375
1635457337956,0.56103516,-0.80059814,-0.0051879883,-17.359375,5.5,1.390625
1635457337994,0.38671875,-0.82281494,0.028015137,-16.703125,3.5625,-5.8125
1635457338031,0.32543945,-0.8862915,0.007507324,-18.796875,8.4375,-9.15625
1635457338088,0.35766602,-0.79644775,0.031188965,-21.375,7.296875,-15.734375
1635457338126,0.35839844,-0.8648071,0.04119873,-22.421875,5.9375,-17.890625
1635457338163,0.45214844,-1.0037231,0.005065918,-18.21875,3.265625,-15.53125
1635457338199,0.4399414,-0.95098877,0.06341553,-23.1875,6.59375,-19.421875
1635457338238,0.31030273,-0.895813,0.038269043,-22.78125,3.96875,-17.953125
1635457338274,0.28027344,-0.8098755,0.11175537,-19.15625,5.125,-15.203125
1635457338312,0.25268555,-0.9299927,0.13983154,-13.640625,7.3125,-17.421875
1635457338350,0.18017578,-0.89678955,0.15765381,-12.328125,11.671875,-12.53125
1635457338388,0.22851562,-0.9175415,0.18035889,-8.75,11.46875,-5.59375
1635457338425,0.1887207,-0.89923096,0.19866943,-14.40625,18.0625,-5.484375
1635457338480,0.091796875,-0.93292236,0.25531006,-1.640625,20.03125,-3.4375
1635457338518,0.10668945,-0.8508911,0.17034912,-1.875,20.3125,-2.359375
1635457338557,0.09741211,-0.7698364,0.2531128,2.515625,19.484375,-3.0
1635457338613,0.15551758,-0.87164307,0.2074585,9.828125,22.359375,-1.984375
1635457338631,0.095214844,-0.7979126,0.22259521,10.65625,23.140625,-2.546875
1635457338690,-0.04345703,-0.8291626,0.19818115,13.515625,23.3125,-3.328125
1635457338706,-0.033691406,-0.9373169,0.23382568,18.828125,30.21875,-5.609375
1635457338744,0.012207031,-0.89630127,0.21624756,21.984375,33.3125,-5.65625
1635457338781,0.29541016,-1.0686646,-0.08526611,39.6875,16.78125,-3.484375
1635457338819,0.7819824,-1.3569946,-0.58013916,91.78125,-20.015625,12.515625
1635457338913,0.9868164,-1.4363403,-0.23370361,50.5,-28.078125,47.5625
1635457338916,-0.13183594,-0.5737915,0.15765381,6.78125,-0.5625,9.578125
1635457338950,0.29516602,-1.2095337,-0.52423096,111.765625,-0.140625,8.0
1635457338988,0.8730469,-1.1704712,-0.34576416,19.734375,-10.640625,15.265625
1635457339025,0.23803711,-0.6790161,-0.1519165,12.515625,-5.625,-12.515625
1635457339062,0.16625977,-0.7468872,-0.43878174,43.578125,-5.765625,-0.609375
1635457339100,0.6269531,-1.1106567,-0.45269775,15.9375,-12.8125,-8.296875
1635457339138,0.44921875,-0.83306885,-0.3328247,-5.0625,-12.21875,-18.0625
1635457339175,0.26733398,-0.72320557,-0.35894775,-6.625,-10.1875,-14.921875
1635457339212,0.30493164,-0.8272095,-0.348938,-4.515625,-9.59375,-17.765625
1635457339287,0.4326172,-0.96539307,-0.3201294,-6.296875,-12.328125,-14.578125
1635457339306,0.38208008,-0.8687134,-0.2805786,-19.015625,-19.171875,-18.5
1635457339343,0.22802734,-0.86920166,-0.24908447,-20.703125,-18.390625,-19.0625
1635457339381,0.21728516,-0.9006958,-0.14190674,-16.953125,-18.21875,-17.6875
1635457339419,0.1977539,-0.9512329,-0.14874268,-16.8125,-21.65625,-17.046875
1635457339456,0.15112305,-0.85821533,-0.062316895,-13.75,-24.78125,-15.375
1635457339494,0.09033203,-0.89190674,-0.07110596,-7.4375,-25.78125,-11.640625
1635457339532,0.15258789,-0.93463135,-0.069885254,-2.34375,-25.46875,-10.71875
1635457339571,0.21484375,-0.86505127,-0.03277588,-4.734375,-29.859375,-4.34375
1635457339606,0.14208984,-0.8496704,-0.010070801,-11.9375,-28.0,-2.28125
1635457339644,0.07348633,-0.82159424,0.09637451,-4.0,-26.046875,4.703125
1635457339700,0.18164062,-0.7432251,0.12640381,-2.96875,-29.8125,13.625
1635457339737,0.1550293,-0.7996216,0.12176514,0.046875,-28.390625,16.328125
1635457339776,0.22290039,-0.897522,-0.06329346,-12.421875,-40.21875,16.890625
1635457339813,0.36743164,-0.9182739,-0.31988525,7.09375,-17.1875,12.734375
1635457339850,0.5222168,-1.3850708,-0.20220947,10.078125,-7.71875,4.8125
1635457339887,0.7661133,-1.585022,-0.3045044,33.9375,20.375,20.90625
1635457339926,0.3244629,-1.2153931,-0.34405518,9.609375,11.734375,34.5625
1635457339962,0.43701172,-0.91363525,0.11419678,20.96875,14.84375,23.15625
1635457340000,0.4440918,-0.9590454,0.0060424805,8.90625,7.3125,17.203125
1635457340038,0.35791016,-0.8374634,-0.13165283,6.71875,-3.3125,10.046875
1635457340095,0.3659668,-0.72247314,-0.042785645,-6.28125,1.453125,1.875
1635457340131,0.453125,-0.831604,-0.062316895,-3.28125,-2.03125,-9.15625
1635457340169,0.48413086,-0.8855591,-0.12652588,-9.390625,-6.15625,-10.21875
1635457340226,0.41625977,-0.8640747,-0.07232666,-13.859375,-7.40625,-15.1875
1635457340245,0.41235352,-0.7937622,-0.03717041,-10.671875,-3.875,-14.875
1635457340282,0.43481445,-0.8814087,-0.05255127,-10.5,-3.328125,-16.203125
1635457340319,0.3569336,-0.88238525,-0.01763916,-8.296875,1.25,-17.125
1635457340357,0.30566406,-0.90289307,-0.019104004,-7.46875,6.390625,-16.84375
1635457340394,0.30541992,-0.8621216,0.007507324,-4.40625,16.609375,-12.796875
1635457340431,0.28393555,-0.8640747,-0.0012817383,-7.28125,12.953125,-12.234375
1635457340488,0.22241211,-0.79815674,0.09075928,-4.078125,15.0,-9.53125
1635457340525,0.13085938,-0.85406494,0.09124756,5.5625,9.125,-7.171875
1635457340562,0.115478516,-0.81817627,0.09320068,9.296875,14.625,-6.65625
1635457340599,0.14477539,-0.9290161,0.055603027,1.46875,23.921875,-9.0625
1635457340638,0.12768555,-0.8027954,-0.004211426,3.421875,31.84375,-2.6875
1635457340675,0.14501953,-0.8948364,0.10076904,3.625,25.359375,-7.171875
1635457340712,0.103759766,-0.77301025,0.051452637,12.90625,19.65625,-0.40625
1635457340752,0.20117188,-0.8279419,-0.35406494,52.3125,-1.0,9.421875
1635457340788,0.7229004,-1.2730103,-0.7595825,98.140625,-30.109375,40.6875
1635457340844,0.609375,-1.1726685,-0.43756104,-29.0625,1.40625,25.1875
1635457340863,0.087890625,-1.0838013,-0.35211182,52.71875,19.65625,9.21875
1635457340919,0.90771484,-1.125061,-0.5510864,55.765625,-19.0625,36.0
1635457340957,0.4284668,-1.0012817,-0.3892212,-11.6875,3.015625,-1.484375
1635457340994,0.11791992,-0.909729,-0.2954712,31.59375,-4.1875,0.203125
1635457341031,0.4362793,-0.91851807,-0.43170166,12.703125,7.828125,2.296875
1635457341069,0.48242188,-0.8521118,-0.37872314,-3.296875,-0.546875,-8.234375
1635457341109,0.39819336,-0.75738525,-0.38311768,-9.859375,-1.421875,-12.234375
1635457341144,0.4326172,-0.7932739,-0.394104,-11.78125,-8.484375,-11.875
1635457341181,0.33911133,-0.8027954,-0.3616333,-22.390625,-6.28125,-14.953125
1635457341219,0.2626953,-0.80596924,-0.25323486,-22.96875,-4.578125,-13.9375
1635457341257,0.1352539,-0.82891846,-0.20953369,-22.796875,1.4375,-15.5
1635457341313,0.16015625,-0.91290283,-0.1765747,-14.453125,11.109375,-12.78125
1635457341350,0.28442383,-0.9338989,-0.17803955,-16.046875,8.625,-11.75
1635457341388,0.3095703,-0.9260864,-0.1272583,-19.53125,4.515625,-10.65625
1635457341425,0.18603516,-0.90093994,-0.13970947,-22.65625,-1.15625,-8.640625
1635457341463,0.15771484,-0.9151001,-0.058410645,-14.46875,1.53125,-10.859375
1635457341500,0.07128906,-0.9649048,-0.057678223,-8.0,-4.40625,-10.171875
1635457341556,0.030273438,-0.9495239,-0.09991455,-9.75,1.765625,-10.640625
1635457341576,-0.068359375,-0.9404907,-0.028137207,-4.0,6.609375,-9.359375
1635457341613,0.07714844,-0.96099854,0.028747559,-4.328125,0.765625,2.046875
1635457341670,0.05517578,-0.8364868,0.089782715,1.375,-4.0625,7.671875
1635457341744,-0.041015625,-0.786438,0.12640381,-0.21875,2.84375,10.34375
1635457341747,-0.025634766,-0.83966064,0.19915771,2.296875,5.78125,15.21875
1635457341784,0.1340332,-0.68927,0.07171631,-3.796875,2.125,21.25
1635457341818,0.39501953,-0.7163696,-0.3340454,-37.984375,-1.03125,17.59375
1635457341855,0.4597168,-1.6467896,-0.6826782,10.71875,5.640625,16.484375
1635457341895,1.4555664,-1.786438,-0.22296143,13.375,11.796875,34.46875
1635457341931,0.0043945312,-1.1260376,-0.458313,14.15625,16.703125,22.90625
1635457341969,0.49975586,-0.87042236,-0.01763916,37.265625,7.03125,40.75
1635457342012,0.60961914,-0.8045044,-0.05328369,18.703125,0.765625,28.984375
1635457342046,0.3647461,-0.8464966,-0.15948486,22.03125,16.5,25.0625
1635457342081,0.51049805,-0.5498657,-0.077697754,-6.859375,19.125,20.921875
1635457342138,0.4951172,-0.72247314,-0.061340332,-3.21875,21.15625,0.375
1635457342175,0.36865234,-0.98931885,-0.20758057,-4.625,28.359375,-4.546875
1635457342213,0.39135742,-0.9199829,-0.24371338,-13.984375,41.109375,2.234375
1635457342251,0.4555664,-0.7859497,-0.21270752,-19.40625,39.484375,-3.765625
1635457342287,0.37890625,-0.87701416,-0.18145752,-17.640625,37.84375,-5.09375
1635457342325,0.3071289,-0.72076416,-0.12261963,-28.234375,33.578125,-5.96875
1635457342362,0.21948242,-0.644104,-0.14923096,-18.6875,34.078125,-11.890625
1635457342400,0.26513672,-0.6465454,-0.09869385,-15.609375,23.265625,-11.25
1635457342438,0.115722656,-0.44415283,0.031677246,-22.453125,26.3125,-19.78125
1635457342477,-0.13208008,-0.4734497,-0.2131958,-5.703125,37.359375,-30.015625
1635457342531,0.017578125,-0.7124634,-0.10064697,-0.25,56.328125,-27.515625
1635457342569,0.9604492,-0.5745239,-1.3538208,91.5,-16.21875,-23.25
1635457342607,1.999939,-1.93219,-0.2703247,-221.79688,23.609375,16.015625
1635457342645,-0.21435547,-0.49517822,0.42889404,-62.546875,-35.609375,-58.390625
1635457342681,0.25708008,-1.4214478,-0.56988525,81.6875,-39.84375,41.078125
1635457342719,0.3894043,-0.7803345,0.21844482,-51.484375,-4.71875,-12.78125
1635457342756,-0.29174805,-0.42071533,-0.0044555664,8.671875,-20.0625,-39.71875
1635457342794,0.20874023,-0.68463135,-0.1194458,8.75,-7.65625,-21.40625
1635457342832,0.6694336,-0.9585571,-0.13238525,-2.4375,-32.546875,-18.515625
1635457342925,0.4182129,-0.82940674,-0.1831665,-22.28125,-28.28125,-21.9375
1635457342930,0.10546875,-0.9849243,-0.024475098,-10.953125,-33.484375,-22.0625
1635457342963,0.30078125,-1.0308228,-0.077697754,8.046875,-31.1875,-14.265625
1635457342999,0.3244629,-0.9180298,-0.06036377,-9.171875,-31.4375,-7.8125
1635457343042,0.19213867,-0.8279419,-0.020568848,-2.828125,-35.546875,-10.0
1635457343075,0.18261719,-0.87872314,0.05316162,-2.75,-33.59375,-9.140625
1635457343113,0.12426758,-0.9319458,0.094177246,-0.875,-37.953125,-3.296875
1635457343150,0.03515625,-0.87750244,0.13763428,3.0,-33.25,-1.859375
1635457343187,0.03491211,-0.92559814,0.13397217,0.203125,-31.25,0.28125
1635457343225,-0.0014648438,-0.8491821,0.2189331,2.75,-27.78125,5.375
1635457343262,-0.018798828,-0.8233032,0.24603271,0.203125,-27.625,11.890625
1635457343301,0.099365234,-0.7842407,0.19989014,9.703125,-22.125,17.015625
1635457343357,0.24633789,-0.8057251,0.09075928,-2.984375,-27.40625,14.921875
1635457343394,0.29907227,-1.0444946,0.07879639,-19.90625,-27.734375,3.890625
1635457343430,0.4489746,-1.3616333,0.1486206,16.625,-19.0625,-2.859375
1635457343469,0.61279297,-1.5811157,-0.26153564,29.375,13.84375,-11.203125
1635457343506,0.53808594,-1.3970337,-0.17462158,16.5,-1.59375,18.734375
1635457343563,0.32836914,-0.86309814,0.073913574,-2.53125,-17.15625,19.765625
1635457343582,0.49047852,-0.8987427,0.17181396,3.28125,-8.15625,14.53125
1635457343619,0.4206543,-0.960022,0.022644043,7.328125,-23.15625,11.78125
1635457343659,0.3137207,-0.75494385,-0.012756348,7.4375,-10.4375,9.5625
1635457343693,0.46826172,-0.74346924,0.09442139,1.859375,-20.59375,3.078125
1635457343750,0.45874023,-0.7490845,0.08026123,-0.578125,-17.671875,-0.421875
1635457343788,0.33081055,-0.81500244,-0.006164551,-1.21875,-14.59375,4.0625
1635457343825,0.38623047,-0.77960205,0.086364746,4.109375,-17.53125,3.109375
1635457343863,0.46191406,-0.83135986,0.18035889,-0.796875,-15.203125,1.734375
1635457343900,0.3305664,-0.88775635,0.113464355,3.3125,-11.53125,5.109375
1635457343938,0.3864746,-0.93170166,0.21087646,3.765625,-9.390625,7.5
1635457343975,0.39746094,-0.9102173,0.32244873,-1.75,3.015625,-1.328125
1635457344012,0.38452148,-0.9702759,0.16375732,-0.40625,4.5,3.3125
1635457344050,0.3322754,-0.87994385,0.21185303,-11.671875,10.671875,-0.25
1635457344086,0.26513672,-0.89312744,0.21453857,-12.15625,13.859375,-1.703125
1635457344143,0.23828125,-0.7908325,0.23577881,-3.96875,15.296875,-0.765625
1635457344181,0.40795898,-0.71954346,0.23919678,-4.484375,11.078125,-1.625
1635457344218,0.41967773,-0.7073364,0.2789917,-2.0625,14.453125,-4.46875
1635457344255,0.1538086,-0.7756958,0.31414795,0.578125,8.1875,-4.3125
1635457344293,0.37182617,-0.6494751,0.40985107,13.796875,-2.21875,-6.6875
1635457344332,0.22631836,-0.65802,0.36346436,14.609375,14.34375,-14.125
1635457344369,0.2290039,-0.7966919,0.4298706,17.15625,14.71875,-12.34375
1635457344406,0.32788086,-0.8320923,0.479187,28.453125,24.3125,-22.109375
1635457344444,0.26660156,-0.9146118,0.028015137,35.328125,27.375,-17.359375
1635457344482,0.81811523,-1.302063,-0.53619385,130.09375,-30.421875,-3.90625
1635457344519,0.79418945,-1.6004028,-0.8987427,45.53125,-1.734375,32.25
1635457344575,0.35839844,-1.0425415,-0.25836182,34.71875,-41.984375,-2.9375
1635457344612,0.33154297,-1.428772,-0.8555298,31.09375,-15.703125,4.53125
1635457344654,0.22558594,-0.9336548,-0.53741455,24.203125,-13.6875,-14.078125
1635457344687,0.46069336,-0.93634033,-0.37579346,20.265625,-27.96875,1.1875
1635457344725,0.24731445,-0.7156372,-0.33673096,-2.984375,-25.921875,-9.53125
1635457344762,0.1081543,-0.6399536,-0.29400635,2.828125,-22.203125,-12.328125
1635457344800,0.20385742,-0.7815552,-0.36138916,7.359375,-15.578125,-14.515625
1635457344838,0.22558594,-0.94659424,-0.31427002,-8.90625,-15.640625,-18.390625
1635457344875,0.2133789,-0.9121704,-0.24786377,-26.53125,-8.09375,-16.828125
1635457344913,0.08544922,-0.93048096,-0.15216064,-21.671875,-2.625,-15.546875
1635457344969,0.17919922,-0.9624634,-0.15777588,-16.234375,8.234375,-15.640625
1635457345010,0.26586914,-1.0266724,-0.22125244,-24.796875,5.15625,-17.453125
1635457345044,0.21142578,-0.8154907,-0.15240479,-25.859375,2.390625,-10.78125
1635457345082,0.16381836,-0.798645,-0.12994385,-17.28125,-5.0625,-4.75
1635457345119,0.18432617,-0.847229,-0.07867432,-14.921875,-16.953125,-0.734375
1635457345156,0.15161133,-0.88775635,-0.031066895,-11.015625,-23.25,0.703125
1635457345194,0.14282227,-0.84088135,-0.06744385,-15.59375,-34.359375,1.546875
1635457345230,-0.0078125,-0.7827759,0.02532959,-7.140625,-34.484375,10.765625
1635457345268,0.055908203,-1.0254517,0.050964355,-5.6875,-33.734375,14.640625
1635457345305,-0.33813477,-0.94366455,0.032165527,-9.75,-20.359375,10.5625
1635457345401,-0.041259766,-1.1152954,-0.016662598,16.984375,5.21875,10.34375
1635457345408,0.6826172,-1.1853638,-0.1885376,-5.546875,25.46875,16.765625
1635457345438,0.81274414,-1.3579712,0.1786499,-5.953125,25.75,23.625
1635457345475,0.41430664,-1.2244263,0.07733154,21.328125,29.890625,15.953125
1635457345513,0.7224121,-0.9175415,0.014099121,-9.9375,11.71875,26.15625
1635457345550,0.39160156,-0.8154907,0.13421631,-7.5,22.703125,6.296875
1635457345587,0.34375,-0.895813,-0.11114502,3.578125,28.484375,10.15625
1635457345625,0.4946289,-0.7073364,-0.04449463,-10.671875,24.6875,8.40625
1635457345663,0.5529785,-0.63116455,-0.030090332,-13.65625,24.015625,1.09375
1635457345700,0.58618164,-0.7803345,-0.020568848,-13.96875,18.265625,-5.578125
1635457345757,0.5227051,-0.8670044,-0.055480957,-15.578125,13.40625,-7.015625
1635457345796,0.5007324,-0.78692627,-0.027893066,-7.015625,11.703125,-8.703125
1635457345834,0.5500488,-0.8521118,-0.014953613,-8.421875,9.375,-6.75
1635457345869,0.48388672,-0.84869385,0.015808105,-10.359375,7.890625,-8.890625
1635457345906,0.4597168,-0.88653564,0.05609131,-7.34375,8.015625,-6.5625
1635457345946,0.48779297,-0.8213501,0.08441162,-8.40625,3.65625,-3.359375
1635457345982,0.41308594,-0.82818604,0.16546631,-13.359375,2.1875,-5.125
1635457346019,0.35180664,-0.79034424,0.13494873,-7.609375,-0.328125,-3.34375
1635457346057,0.45288086,-0.7810669,0.15863037,-10.21875,-0.4375,-2.484375
1635457346094,0.4338379,-0.835022,0.19329834,-4.390625,-6.546875,-3.546875
1635457346130,0.2644043,-0.86016846,0.13739014,-6.6875,-2.515625,-2.59375
1635457346187,0.3642578,-0.81451416,0.30560303,1.203125,-0.40625,-0.8125
1635457346226,0.23730469,-0.8399048,0.29632568,-8.59375,6.15625,-10.328125
1635457346263,0.18115234,-0.89434814,0.3834839,2.515625,8.875,-7.8125
1635457346300,0.2619629,-0.89923096,0.4328003,1.5625,11.015625,-19.21875
1635457346338,0.16503906,-1.0100708,0.4328003,11.609375,19.078125,-21.21875
1635457346375,0.34472656,-0.909729,0.41741943,10.921875,13.375,-15.890625
1635457346412,0.27392578,-0.78009033,0.30633545,8.46875,21.5,-19.96875
1635457346469,0.20922852,-0.928772,0.13470459,11.5625,19.609375,-9.859375
1635457346493,0.6171875,-1.4265747,-0.2612915,41.03125,2.34375,-2.171875
1635457346525,0.54956055,-1.6109009,-0.6638794,-8.171875,11.703125,27.40625
1635457346582,-0.2241211,-1.0818481,-0.16607666,19.71875,22.953125,-7.875
1635457346619,0.36645508,-1.1721802,-0.37750244,32.59375,15.6875,-5.28125
1635457346656,0.40649414,-0.9343872,-0.27838135,12.6875,-0.828125,10.28125
1635457346694,0.052001953,-0.6309204,-0.09136963,4.625,-6.734375,0.71875
1635457346732,-0.119628906,-0.69854736,-0.15997314,9.109375,-3.734375,-7.390625
1635457346769,0.09301758,-0.9627075,-0.24395752,12.0625,-2.890625,-8.125
1635457346807,0.3256836,-0.9981079,-0.21466064,3.0625,-7.25,0.03125
1635457346844,0.12963867,-0.9607544,-0.08746338,-17.40625,-0.40625,-5.953125
1635457346900,-0.0390625,-0.9817505,-0.18756104,-4.5,12.90625,-13.015625
1635457346918,0.16577148,-1.0713501,-0.10089111,-2.078125,15.234375,-5.84375
1635457346975,0.07543945,-0.9414673,-0.09210205,-12.625,20.015625,-7.90625
1635457347011,0.13720703,-0.99957275,-0.043273926,-0.546875,23.46875,-6.734375
1635457347050,0.08569336,-0.99298096,-0.07159424,-12.65625,26.71875,-6.578125
1635457347088,0.005126953,-1.0701294,-0.081848145,-3.515625,23.140625,-6.0625
1635457347126,0.10620117,-0.97125244,-0.11187744,-6.953125,20.3125,-0.265625
1635457347163,0.05419922,-0.95147705,-0.06573486,-10.53125,15.15625,-0.359375
1635457347201,-0.07421875,-0.9055786,-0.03643799,-9.875,13.765625,3.140625
1635457347237,-0.030273438,-0.8765259,-0.04449463,-8.3125,12.078125,3.953125
1635457347275,-0.02368164,-0.89019775,-0.04864502,-11.1875,9.171875,5.34375
1635457347319,-0.014404297,-0.8731079,-0.06451416,-4.078125,1.859375,11.765625
1635457347351,0.009277344,-0.9483032,-0.0256958,-6.796875,0.09375,12.03125
1635457347406,-0.02734375,-1.0200806,-0.01739502,-6.921875,-6.515625,12.546875
1635457347444,-0.064208984,-0.97857666,0.09661865,-7.421875,-6.515625,12.171875
1635457347481,-0.022216797,-1.2571411,-0.07305908,1.9375,1.828125,13.984375
1635457347518,0.5065918,-1.1401978,-0.053527832,-15.765625,6.734375,23.484375
1635457347557,0.4831543,-1.4619751,-0.13360596,13.375,7.90625,7.53125
1635457347594,0.63671875,-1.1863403,0.1618042,16.578125,18.21875,25.25
1635457347631,0.703125,-1.1026001,0.08123779,-2.71875,4.78125,24.90625
1635457347671,0.33007812,-0.8496704,0.13934326,-5.71875,9.171875,4.625
1635457347706,0.26879883,-0.76031494,0.038269043,1.65625,19.59375,6.4375
1635457347744,0.57592773,-0.7752075,0.0021362305,-4.96875,12.0625,5.53125
1635457347800,0.5571289,-0.7937622,0.085632324,-17.984375,12.90625,-5.203125
1635457347838,0.3461914,-0.78692627,0.057800293,-14.53125,13.765625,-9.09375
1635457347875,0.4165039,-0.80963135,0.032409668,-14.78125,13.90625,-9.625
1635457347913,0.41601562,-0.82110596,0.0524292,-14.453125,17.875,-13.25
1635457347951,0.40185547,-0.8411255,0.097839355,-15.59375,15.234375,-11.515625
1635457347987,0.34448242,-0.85357666,0.12298584,-14.640625,19.875,-14.921875
1635457348026,0.3166504,-0.8748169,0.07513428,-9.34375,23.03125,-11.75
1635457348062,0.34521484,-0.9614868,0.12860107,-12.0,20.46875,-9.625
1635457348100,0.2783203,-0.89678955,0.1605835,-15.234375,24.890625,-12.625
1635457348138,0.30004883,-0.88848877,0.14031982,-9.921875,23.515625,-9.171875
1635457348194,0.3725586,-0.9998169,0.25360107,-7.546875,19.5625,-10.0625
1635457348231,0.26098633,-0.989563,0.19866943,-4.953125,18.421875,-9.40625
1635457348269,0.19360352,-0.9209595,0.18060303,-1.09375,20.046875,-8.296875
1635457348306,0.18701172,-0.954895,0.2086792,2.828125,20.484375,-9.3125
1635457348344,0.1862793,-0.9456177,0.22357178,7.375,23.375,-3.859375
1635457348381,0.15405273,-0.8753052,0.20062256,2.0625,22.65625,-1.484375
1635457348419,0.076171875,-0.83013916,0.23016357,4.84375,27.859375,-6.25
1635457348459,0.055664062,-0.7991333,0.25604248,9.671875,30.546875,-6.640625
1635457348494,0.091796875,-0.71661377,0.19696045,14.171875,29.796875,-5.765625
1635457348531,0.16455078,-0.72198486,0.24017334,19.546875,23.578125,-8.359375
1635457348569,0.1616211,-0.81988525,0.21942139,20.953125,27.390625,-7.5625
1635457348625,0.4477539,-1.003479,-0.20098877,53.359375,-8.265625,-11.65625
1635457348662,0.7158203,-1.7976685,-0.5696411,73.375,-11.21875,25.6875
1635457348700,0.5029297,-1.1057739,-0.4500122,28.765625,-19.484375,13.328125
1635457348737,-0.039794922,-1.1480103,-0.48443604,37.4375,18.5,-2.0625
1635457348775,0.39941406,-1.2227173,-0.58795166,49.5625,-2.96875,6.328125
1635457348813,0.57373047,-0.9883423,-0.37579346,28.484375,-11.734375,2.265625
1635457348853,0.30688477,-0.6746216,-0.2966919,12.984375,-21.25,-2.140625
1635457348896,-4.8828125E-4,-0.83380127,-0.41119385,11.015625,-14.53125,-10.015625
1635457348924,0.30371094,-0.9273071,-0.35455322,14.21875,-20.28125,-7.234375
1635457348964,0.43579102,-0.8208618,-0.35479736,-1.015625,-19.296875,-7.265625
1635457349019,0.29736328,-0.8140259,-0.40338135,-11.578125,-19.5625,-12.015625
1635457349056,0.28759766,-0.87579346,-0.2859497,-11.890625,-23.109375,-16.6875
1635457349094,0.33032227,-0.94195557,-0.31011963,-14.921875,-22.984375,-18.375
1635457349132,0.28222656,-0.8599243,-0.23052979,-22.640625,-29.5,-15.53125
1635457349169,0.27978516,-0.81427,-0.21417236,-15.515625,-26.96875,-18.765625
1635457349206,0.22607422,-0.93634033,-0.18243408,-11.9375,-32.0,-14.9375
1635457349244,0.22143555,-0.94244385,-0.15460205,-12.453125,-36.984375,-9.640625
1635457349281,0.17407227,-0.8374634,-0.0803833,-7.796875,-41.5,-9.765625
1635457349319,0.12768555,-0.96343994,-0.0947876,-7.390625,-32.890625,-8.4375
1635457349451,0.095458984,-0.93341064,-0.002746582,-2.734375,-31.8125,-4.421875
1635457349453,0.049804688,-0.8911743,0.059020996,-3.296875,-27.46875,-2.0625
1635457349454,0.0031738281,-0.94195557,0.030456543,-5.65625,-21.21875,-0.484375
1635457349489,-0.030517578,-0.85040283,0.113464355,-7.4375,-12.453125,-0.9375
1635457349526,0.011962891,-0.84698486,0.15692139,-3.203125,-10.71875,2.046875
1635457349562,0.07739258,-0.913147,0.17010498,0.9375,-16.09375,3.875
1635457349600,0.05126953,-0.91900635,0.14959717,2.734375,-16.953125,12.0
1635457349637,0.09790039,-0.9487915,0.1605835,2.890625,-18.921875,13.96875
1635457349674,0.026367188,-1.3948364,-0.08795166,-8.859375,-15.5625,2.328125
1635457349712,0.29907227,-1.1607056,-0.29571533,5.578125,7.5625,-0.921875
1635457349750,0.82910156,-1.4509888,-0.01739502,12.40625,26.546875,7.640625
1635457349787,0.6098633,-1.3088989,-0.17120361,0.171875,9.25,9.078125
1635457349844,0.140625,-0.8887329,-0.15655518,-15.015625,0.140625,6.21875
1635457349882,0.24511719,-0.8508911,-0.04449463,-1.828125,12.390625,-1.359375
1635457349920,0.5349121,-0.95880127,0.073913574,-2.578125,10.953125,1.90625
1635457349959,0.4404297,-0.74591064,-0.03765869,-11.84375,1.984375,1.59375
1635457349994,0.2619629,-0.7749634,0.08709717,-14.296875,9.46875,-8.84375
1635457350031,0.21386719,-0.96954346,0.109313965,-7.984375,10.375,-8.390625
1635457350069,0.30273438,-0.9373169,0.0060424805,-12.78125,23.171875,-4.71875
1635457350106,0.28710938,-0.87335205,0.02923584,-19.703125,32.46875,-6.5
1635457350144,0.29589844,-0.92681885,0.0028686523,-13.15625,27.0625,-3.125
1635457350184,0.3059082,-0.8635864,0.11151123,-15.53125,29.3125,-3.75
1635457350237,0.2668457,-0.83062744,0.08416748,-12.953125,30.4375,-5.296875
1635457350274,0.2084961,-0.8999634,0.08294678,-8.609375,27.46875,-3.0
1635457350313,0.29711914,-0.9089966,0.11199951,-6.015625,20.03125,-4.625
1635457350350,0.23046875,-0.8677368,0.09539795,-2.96875,21.203125,-4.5625
1635457350388,0.2944336,-0.94537354,0.20892334,-6.71875,13.578125,-4.84375
1635457350425,0.15258789,-0.91485596,0.21331787,0.46875,11.65625,-5.6875
1635457350462,0.13012695,-0.9326782,0.20184326,1.046875,17.96875,-6.828125
1635457350499,0.095458984,-0.9573364,0.22064209,0.8125,19.21875,-8.609375
1635457350537,0.052734375,-0.8323364,0.23284912,9.875,18.515625,-5.46875
1635457350575,0.14404297,-0.8364868,0.21282959,12.09375,23.03125,-4.453125
1635457350631,0.18798828,-0.8948364,0.2296753,12.734375,17.046875,-4.859375
1635457350673,0.025146484,-0.93048096,0.24554443,14.796875,22.703125,-7.09375
1635457350707,-0.05834961,-0.96954346,0.08929443,22.921875,31.515625,-6.265625
1635457350744,0.3203125,-1.2254028,-0.25836182,58.484375,6.453125,1.40625
1635457350781,0.8078613,-1.2644653,-0.34283447,52.1875,-5.296875,25.015625
1635457350820,0.51049805,-1.2407837,-0.3369751,31.5625,-7.59375,18.234375
1635457350856,0.26049805,-1.0925903,-0.3916626,13.015625,-4.734375,3.328125
1635457350894,0.2524414,-1.0217896,-0.25030518,14.0,1.5625,-10.453125
1635457350931,0.30810547,-0.94976807,-0.27301025,11.671875,-7.796875,-1.671875
1635457350971,0.26660156,-0.7505493,-0.30743408,3.625,-9.234375,-4.984375
1635457351006,0.17871094,-0.8623657,-0.25567627,2.734375,-11.0625,-13.265625
1635457351063,0.21533203,-0.98809814,-0.29180908,-0.171875,-11.59375,-11.09375
1635457351101,0.2055664,-0.8701782,-0.29083252,-3.125,-12.609375,-8.96875
1635457351139,0.2319336,-0.80841064,-0.2649536,-3.9375,-11.96875,-9.671875
1635457351178,0.25048828,-0.9116821,-0.21026611,-7.609375,-13.6875,-13.359375
1635457351213,0.19213867,-0.91192627,-0.27911377,-4.703125,-12.578125,-9.234375
1635457351250,0.203125,-0.9138794,-0.2300415,-4.875,-14.890625,-7.15625
1635457351287,0.2006836,-0.9402466,-0.15484619,-9.078125,-14.3125,-7.640625
1635457351325,0.111083984,-0.93292236,-0.094055176,-10.78125,-11.4375,-7.484375
1635457351363,-0.0234375,-0.9314575,-0.073791504,-9.484375,-6.0625,-7.84375
1635457351401,0.096191406,-1.1043091,-0.090148926,-3.09375,-0.515625,-2.265625
1635457351456,0.115234375,-0.99884033,-0.051086426,-13.125,-5.75,-1.25
1635457351494,0.041259766,-0.97003174,0.024353027,-8.703125,0.796875,-3.53125
1635457351531,0.10839844,-1.0496216,-0.017150879,-4.9375,-2.875,0.21875
1635457351572,0.15258789,-0.95928955,-0.007873535,-9.8125,-3.453125,-0.625
1635457351606,0.07006836,-0.81744385,0.07293701,-9.21875,-0.71875,5.609375
1635457351644,-0.014404297,-0.9326782,0.001159668,-4.46875,-0.21875,7.015625
1635457351681,0.083496094,-0.88946533,0.07659912,-1.21875,-3.609375,8.015625
1635457351719,0.15161133,-0.861145,0.034606934,5.21875,-9.15625,14.921875
1635457351756,0.14794922,-0.8904419,0.03704834,7.15625,-16.796875,17.71875
1635457351794,0.08227539,-1.0232544,0.054138184,6.359375,-20.984375,16.8125
1635457351889,0.078125,-0.9746704,0.09906006,6.15625,-26.671875,12.9375
1635457351892,0.2692871,-1.1516724,-0.039855957,21.171875,-25.015625,8.359375
1635457351925,0.22021484,-1.1904907,-0.18951416,17.84375,-13.40625,3.765625
1635457351962,0.53686523,-1.18927,-0.14678955,28.453125,21.234375,10.8125
1635457352000,0.5480957,-0.98321533,0.020446777,27.421875,6.5625,8.03125
1635457352039,0.27148438,-0.7542114,-0.057434082,27.03125,10.4375,7.015625
1635457352075,0.3552246,-0.70269775,0.022888184,28.53125,18.765625,13.390625
1635457352113,0.2548828,-0.9656372,-0.07891846,16.609375,19.84375,4.03125
1635457352150,0.54663086,-1.0332642,-0.3164673,28.796875,17.515625,13.703125
1635457352187,0.4975586,-0.8345337,-0.09307861,-1.671875,18.46875,2.390625
1635457352225,0.4658203,-0.9343872,-0.22198486,10.046875,15.953125,11.640625
1635457352281,0.5593262,-0.8508911,-0.10089111,-2.5,8.96875,-0.359375
1635457352319,0.5187988,-0.8633423,-0.25274658,-1.765625,6.125,0.640625
1635457352356,0.43969727,-0.7937622,-0.20318604,-6.875,-7.8125,1.640625
1635457352394,0.5209961,-0.89068604,-0.13970947,-9.28125,-12.9375,1.46875
1635457352432,0.39624023,-0.9038696,-0.11798096,-6.5625,-14.703125,-1.890625
1635457352469,0.3930664,-0.95098877,-0.105529785,-3.59375,-14.953125,-3.171875
1635457352506,0.33813477,-0.9421997,-0.0413208,-0.3125,-5.109375,-6.765625
1635457352544,0.4116211,-0.94244385,-0.070373535,0.625,-5.265625,-7.4375
1635457352582,0.34155273,-0.7798462,0.03778076,-11.296875,-3.765625,-8.65625
1635457352619,0.1821289,-0.8110962,0.105407715,-9.1875,-0.46875,-11.0625
1635457352675,0.20532227,-0.8225708,0.10028076,3.390625,1.1875,-12.40625
1635457352712,0.33642578,-0.7424927,0.15350342,-2.21875,9.375,-14.21875
1635457352752,0.18969727,-0.70928955,0.093444824,-1.328125,6.09375,-22.953125
1635457352787,0.17480469,-0.8545532,0.094177246,9.78125,5.21875,-16.84375
1635457352825,0.5354004,-0.86798096,-0.18682861,27.359375,-12.421875,-7.375
1635457352863,1.0895996,-1.4353638,-0.9590454,89.09375,-37.5,27.625
1635457352900,0.09741211,-1.6882935,-0.70147705,-23.84375,-7.28125,3.8125
1635457352937,0.027832031,-0.612854,-0.32037354,39.234375,12.6875,-15.953125
1635457352975,0.8532715,-1.0999146,-0.6189575,52.46875,-26.640625,25.90625
1635457353013,0.38354492,-0.77227783,-0.30303955,-18.171875,-24.203125,-16.34375
1635457353069,-0.33911133,-0.65997314,-0.23077393,19.125,-12.3125,-13.078125
1635457353106,0.3515625,-0.85357666,-0.3982544,25.0625,-31.953125,-2.3125
1635457353144,0.58251953,-0.85162354,-0.37628174,0.5625,-29.234375,-14.890625
1635457353182,0.29492188,-0.8237915,-0.38970947,-6.421875,-31.109375,-9.46875
1635457353220,0.20678711,-0.89801025,-0.28399658,-6.515625,-34.625,-10.84375
1635457353256,0.31079102,-0.8665161,-0.26568604,-8.921875,-27.4375,-14.28125
1635457353294,0.2607422,-0.9812622,-0.19195557,-15.796875,-24.046875,-17.78125
1635457353332,0.21655273,-0.91778564,-0.14703369,-14.734375,-22.859375,-16.46875
1635457353373,0.23828125,-1.0606079,-0.16290283,-10.796875,-20.5625,-12.40625
1635457353406,0.30615234,-0.9631958,-0.038146973,-20.75,-21.734375,-10.859375
1635457353463,0.11987305,-0.89923096,0.055358887,-22.421875,-16.359375,-13.046875
1635457353499,0.02709961,-0.8545532,0.070251465,-16.4375,-11.828125,-11.78125
1635457353538,0.16357422,-0.88165283,0.09246826,-12.6875,-11.671875,-6.0625
1635457353575,0.10668945,-0.833313,0.11785889,-11.21875,-16.078125,-1.0625
1635457353612,0.076660156,-0.76885986,0.17474365,-3.640625,-24.453125,5.09375
1635457353651,0.20800781,-0.8374634,0.27947998,-4.421875,-33.21875,11.859375
1635457353687,0.23144531,-0.9224243,0.19281006,-11.328125,-32.515625,13.25
1635457353725,-0.020751953,-1.1401978,0.23797607,-11.75,-38.328125,-0.96875
1635457353762,0.08227539,-1.3806763,0.0016479492,7.953125,-19.3125,-3.609375
1635457353800,0.6604004,-1.5269165,-0.17120361,-3.125,1.796875,15.96875
1635457353838,0.6413574,-1.3291626,0.051208496,-0.546875,19.390625,2.3125
1635457353894,0.17919922,-1.1306763,-0.128479,-1.390625,22.3125,18.578125
1635457353931,0.083984375,-0.72491455,0.046325684,-20.390625,31.421875,9.578125
1635457353968,0.1940918,-0.73760986,-0.018371582,-8.765625,31.28125,4.390625
1635457354005,0.41870117,-0.80792236,0.06414795,-13.296875,21.46875,2.453125
1635457354062,0.40600586,-0.8430786,0.12567139,-26.640625,24.96875,-12.953125
1635457354080,0.30419922,-0.9277954,0.09979248,-15.96875,31.8125,-19.890625
1635457354122,0.27490234,-0.9229126,0.070739746,-19.6875,26.671875,-19.28125
1635457354155,0.2265625,-0.8357544,0.027038574,-23.078125,38.78125,-15.546875
1635457354195,0.29736328,-0.9631958,-0.053771973,-21.5,42.234375,-16.921875
1635457354232,0.28442383,-0.91412354,0.034118652,-22.4375,48.65625,-17.390625
1635457354287,0.28979492,-0.92022705,0.16082764,-15.5625,39.5625,-11.75
1635457354324,0.21264648,-0.93536377,0.19232178,-14.34375,47.765625,-11.9375
1635457354363,0.11621094,-0.9841919,0.0993042,-12.84375,45.59375,-9.078125
1635457354400,0.1616211,-0.9607544,0.18719482,-7.453125,46.21875,-5.9375
1635457354437,0.13085938,-0.9265747,0.14398193,-5.421875,47.6875,-4.0625
1635457354494,0.1472168,-0.92852783,0.11907959,-4.0625,50.0,-2.15625
1635457354513,0.18188477,-0.98321533,0.19769287,-5.421875,46.109375,-2.4375
1635457354550,0.15063477,-0.9180298,0.20037842,-0.078125,42.28125,1.0
1635457354588,0.10839844,-0.90753174,0.22039795,-2.484375,46.0,-1.1875
1635457354625,0.061035156,-0.93829346,0.22943115,1.671875,45.015625,1.15625
1635457354699,0.06640625,-0.8413696,0.15911865,6.4375,43.546875,1.59375
1635457354719,0.09838867,-0.8147583,0.19720459,12.390625,43.5,2.453125
1635457354759,0.08569336,-0.7456665,0.14764404,11.265625,44.640625,1.953125
1635457354794,0.057373047,-0.77423096,0.0836792,20.234375,44.5625,4.109375
1635457354832,0.024658203,-0.737854,0.18133545,15.734375,57.828125,2.125
1635457354868,0.4086914,-1.0930786,-0.26763916,59.65625,23.703125,0.21875
1635457354907,1.5517578,-1.9841919,-1.1255493,102.3125,-18.953125,60.15625
1635457354944,0.79589844,-1.3457642,-0.2312622,-46.296875,6.21875,29.0
1635457354980,-0.49902344,-0.925354,-0.2822876,8.484375,21.1875,-24.546875
1635457355019,0.5710449,-1.0928345,-0.32452393,74.984375,-2.09375,17.53125
1635457355056,0.8376465,-0.7420044,-0.26715088,-13.359375,-9.484375,1.90625
1635457355113,0.07470703,-0.70806885,-0.19952393,-4.734375,-8.109375,-16.3125
1635457355153,0.1508789,-0.9841919,-0.17608643,-7.296875,-5.75,-12.484375
1635457355188,0.39794922,-0.81915283,-0.2288208,-4.703125,2.171875,-12.890625
1635457355225,0.34521484,-0.80963135,-0.269104,-27.59375,13.234375,-16.21875
1635457355262,0.23364258,-0.8899536,-0.20855713,-29.15625,12.375,-26.765625
1635457355300,0.29541016,-0.9546509,-0.24078369,-19.015625,12.109375,-19.953125
1635457355337,0.28051758,-1.0474243,-0.22320557,-19.890625,9.484375,-11.296875
1635457355375,0.21020508,-0.94317627,-0.04498291,-25.03125,2.921875,-11.203125
1635457355412,0.049560547,-0.82818604,0.019958496,-19.875,0.546875,-6.75
1635457355450,0.037109375,-0.7998657,-0.0020141602,-14.390625,-8.1875,-4.34375
1635457355507,0.05908203,-0.7402954,0.007019043,-10.0,-9.546875,2.328125
1635457355546,0.03491211,-0.7666626,-3.0517578E-4,-10.03125,-16.453125,4.03125
1635457355582,0.0859375,-0.67852783,0.023376465,-9.84375,-16.140625,5.765625
1635457355619,0.16748047,-0.61383057,-0.07574463,-14.125,-30.328125,-7.078125
1635457355656,0.34350586,-1.0015259,-0.0051879883,12.484375,-2.015625,-6.578125
1635457355693,1.0908203,-2.0,0.018249512,28.390625,-23.0625,-23.03125
1635457355731,0.92089844,-1.4685669,0.046569824,7.609375,7.375,6.046875
1635457355769,0.42138672,-1.0447388,-0.042785645,-6.203125,-34.671875,20.90625
1635457355809,0.22875977,-0.9578247,0.25238037,3.1875,-4.1875,4.28125
1635457355844,0.10620117,-0.7852173,0.06585693,5.171875,8.75,7.046875
1635457355939,0.30297852,-0.58135986,-0.11846924,6.03125,-3.640625,5.984375
1635457355942,0.48364258,-0.5408325,0.1774292,-8.15625,-5.734375,2.015625
1635457355978,0.38964844,-0.8189087,0.14178467,-5.34375,-12.21875,-11.984375
1635457356014,0.38623047,-1.0418091,0.121032715,1.921875,-18.15625,-7.796875
1635457356107,0.35913086,-0.986145,0.13348389,-1.203125,-22.109375,-3.953125
1635457356111,0.30493164,-0.94244385,0.090026855,4.9375,-11.9375,-2.21875
1635457356128,0.4453125,-0.989563,0.18011475,0.640625,-18.765625,0.28125
1635457356162,0.29589844,-0.9089966,0.22845459,-4.953125,-13.078125,-1.71875
1635457356200,0.15234375,-0.90045166,0.23260498,8.546875,-7.109375,-4.78125
1635457356257,0.30395508,-0.8945923,0.16644287,14.203125,-3.28125,-0.4375
1635457356275,0.3552246,-0.9121704,0.15765381,3.203125,-6.296875,-2.65625
1635457356340,0.16308594,-0.8308716,0.1708374,10.359375,-0.34375,-1.109375
1635457356368,0.18041992,-0.84088135,0.20843506,10.6875,1.28125,-2.515625
1635457356424,0.21679688,-0.8440552,0.25360107,11.1875,1.765625,-6.796875
1635457356444,0.14428711,-0.8074341,0.2218628,14.109375,3.78125,-5.390625
1635457356482,0.072021484,-0.7913208,0.23968506,16.46875,11.125,-8.125
1635457356519,0.14697266,-0.79644775,0.16278076,20.484375,11.890625,-9.265625
1635457356595,0.18920898,-0.89630127,0.2411499,21.65625,13.671875,-10.109375
1635457356599,0.12573242,-0.85943604,-0.0335083,27.609375,11.390625,-8.140625
1635457356632,0.4753418,-1.2407837,-0.6902466,96.703125,-12.359375,2.59375
1635457356672,1.0935059,-1.6043091,-0.8508911,77.765625,-9.265625,47.96875
1635457356744,0.27612305,-1.0425415,-0.44903564,-9.4375,-2.59375,-11.65625
1635457356763,0.09863281,-0.9846802,-0.28741455,45.484375,-3.75,-13.15625
1635457356800,0.52978516,-0.96417236,-0.32208252,46.78125,-37.359375,9.5
1635457356838,0.3088379,-0.56085205,-0.2234497,-1.78125,-43.46875,-8.265625
1635457356913,0.10546875,-0.7686157,-0.33502197,19.890625,-25.84375,-14.84375
1635457356917,0.28125,-0.9993286,-0.3579712,11.46875,-38.0,-11.265625
1635457356950,0.3713379,-0.91192627,-0.37408447,-0.390625,-34.078125,-10.859375
1635457356987,0.2980957,-0.7295532,-0.28302002,-9.0,-31.140625,-12.015625
1635457357045,0.29614258,-0.8460083,-0.2913208,-2.265625,-33.921875,-13.40625
1635457357063,0.32739258,-0.97003174,-0.19537354,-6.671875,-32.8125,-16.578125
1635457357119,0.2602539,-0.9512329,-0.19049072,-3.171875,-32.265625,-16.640625
1635457357156,0.30615234,-0.91485596,-0.19415283,-3.3125,-34.59375,-15.34375
1635457357194,0.27929688,-0.9378052,-0.10064697,-2.1875,-34.28125,-13.953125
1635457357231,0.21899414,-0.93463135,-0.061828613,-0.53125,-36.09375,-9.890625
1635457357270,0.13085938,-0.8948364,0.008483887,0.78125,-29.640625,-5.859375
1635457357305,0.12890625,-0.9277954,0.019714355,3.65625,-22.59375,-4.4375
1635457357344,0.19506836,-0.770813,0.073913574,0.90625,-23.953125,-1.90625
1635457357381,0.15942383,-0.63726807,0.12030029,-0.09375,-23.296875,0.296875
1635457357419,0.19311523,-0.64630127,0.09661865,6.390625,-31.609375,2.234375
1635457357456,0.44311523,-0.61505127,-0.13238525,-1.71875,-44.078125,3.65625
1635457357494,0.3605957,-1.5286255,-0.7131958,-18.453125,-75.03125,10.625
1635457357551,0.8781738,-1.7810669,0.0028686523,23.484375,-7.140625,6.5625
1635457357588,0.49951172,-1.5105591,-0.8599243,45.0,15.640625,11.546875
1635457357625,0.37329102,-1.1018677,-0.0095825195,-9.96875,9.71875,23.875
1635457357667,0.31323242,-0.88848877,-0.08648682,7.78125,17.84375,8.515625
1635457357704,0.41992188,-0.741272,-0.17852783,14.703125,5.15625,10.03125
1635457357737,0.4958496,-0.585022,-0.027648926,-19.203125,-6.46875,2.765625
1635457357776,0.33984375,-0.6921997,-0.026672363,-6.15625,-8.0,-12.609375
1635457357813,0.23583984,-0.84088135,-0.0791626,-15.53125,-3.46875,-13.703125
1635457357850,0.37963867,-0.8694458,-0.023254395,-12.609375,3.65625,-13.796875
1635457357888,0.33422852,-0.8430786,-0.028869629,-12.03125,5.9375,-13.828125
1635457357944,0.2915039,-0.89556885,1.8310547E-4,-15.671875,9.921875,-11.671875
1635457357986,0.23339844,-0.88238525,0.055358887,-18.078125,19.46875,-12.421875
1635457358019,0.13330078,-0.90802,0.066833496,-8.609375,26.234375,-13.640625
1635457358056,0.16772461,-0.8167114,0.10809326,-9.75,25.84375,-11.046875
1635457358094,0.14038086,-0.74420166,0.12445068,-5.53125,32.53125,-13.875
1635457358132,0.17407227,-0.8789673,0.14154053,-7.109375,31.5,-14.265625
1635457358169,0.0637207,-0.80670166,0.26556396,-6.46875,35.765625,-16.4375
1635457358206,0.029541016,-0.8352661,0.23431396,-2.203125,33.78125,-12.421875
1635457358245,-0.09741211,-0.9841919,0.19573975,-11.671875,50.046875,-9.28125
1635457358281,0.14941406,-0.9612427,-0.66119385,33.96875,20.015625,-10.28125
1635457358376,1.4226074,-2.0,-1.2454224,81.09375,10.984375,78.5
1635457358379,0.42016602,-1.5122681,-0.456604,-85.59375,-51.890625,-2.796875
1635457358414,-0.6789551,-0.7149048,0.3649292,20.9375,39.96875,-15.359375
1635457358450,0.34375,-1.0762329,-0.5183716,54.796875,11.90625,18.734375
1635457358487,0.8383789,-0.6553345,-0.2805786,-16.609375,-17.171875,-1.328125
1635457358526,-0.20703125,-0.5510864,0.085876465,-22.359375,-3.09375,-15.296875
1635457358563,-0.3269043,-1.017395,-0.17047119,3.359375,2.671875,-9.125
1635457358602,0.31054688,-1.0569458,-0.1807251,7.421875,7.890625,-2.015625
1635457358637,0.2763672,-1.0523071,-0.17803955,-15.890625,11.09375,-6.265625
1635457358675,-0.016601562,-0.9536743,-0.04888916,-20.3125,12.890625,-9.65625
1635457358712,-0.063964844,-0.8845825,-0.03277588,-9.796875,30.265625,-11.140625
1635457358769,0.060791016,-0.95147705,-0.11480713,-0.1875,32.984375,-9.078125
1635457358809,0.07006836,-0.9824829,-0.046447754,-8.5625,27.5625,-7.671875
1635457358845,0.04321289,-1.053772,-0.05987549,-4.203125,18.234375,-5.890625
1635457358884,0.08203125,-0.99005127,-0.066223145,-9.734375,18.859375,-3.484375
1635457358919,0.03955078,-1.0115356,-0.070373535,-8.4375,14.234375,-3.078125
1635457358957,-0.043701172,-1.0071411,-0.036193848,-11.875,10.296875,-1.953125
1635457358994,-0.11206055,-0.98394775,-0.032043457,-7.796875,12.984375,2.234375
1635457359033,-0.095703125,-0.97784424,-0.041809082,-6.984375,11.96875,7.8125
1635457359069,-0.0234375,-0.8987427,-0.019104004,-4.109375,7.984375,9.578125
1635457359107,-0.08935547,-0.8970337,0.026794434,-5.359375,11.625,11.671875
1635457359162,-0.07470703,-0.87677,0.04168701,2.5625,9.5,15.8125
1635457359201,-0.04321289,-0.8411255,0.042907715,2.40625,10.890625,19.640625
1635457359241,0.01586914,-0.8184204,0.0028686523,7.375,9.765625,24.03125
1635457359274,0.059570312,-0.8242798,-0.03717041,7.109375,1.234375,28.734375
1635457359313,0.3479004,-1.0835571,-0.49346924,-5.203125,3.09375,24.84375
1635457359351,0.7783203,-1.2698364,0.007019043,9.5,33.828125,34.90625
1635457359389,1.0327148,-1.2905884,0.070739746,9.171875,18.15625,41.0625
1635457359425,0.626709,-1.206604,-0.3633423,20.890625,20.890625,52.0625
1635457359462,0.61206055,-0.8386841,0.31781006,-1.5,2.75,37.03125
1635457359502,0.29589844,-0.7974243,-0.09112549,14.640625,18.109375,25.4375
1635457359556,0.52978516,-0.7974243,-0.20074463,7.90625,19.65625,22.484375
1635457359594,0.6887207,-0.67852783,-0.053527832,-11.5,8.515625,10.5
1635457359634,0.49975586,-0.74957275,-0.07965088,-9.125,14.140625,-0.859375
1635457359674,0.609375,-0.831604,-0.14190674,-12.734375,9.359375,-3.53125
1635457359705,0.6135254,-0.73809814,-0.051574707,-16.015625,11.546875,-11.375
1635457359744,0.50097656,-0.7774048,-0.078430176,-17.609375,7.765625,-18.109375
1635457359781,0.4802246,-0.79937744,-0.0713501,-17.4375,11.796875,-19.140625
1635457359822,0.43676758,-0.78863525,-0.0154418945,-22.21875,16.703125,-22.578125
1635457359858,0.32983398,-0.8267212,-0.050109863,-16.09375,23.34375,-24.328125
1635457359894,0.3959961,-0.89190674,-0.01373291,-15.859375,30.796875,-20.59375
1635457359951,0.39208984,-0.8858032,-0.016174316,-20.765625,31.828125,-22.0625
1635457359992,0.28735352,-0.8369751,-0.008361816,-18.359375,36.71875,-22.140625
1635457360028,0.3088379,-0.8735962,0.04852295,-15.375,33.734375,-20.828125
1635457360062,0.23657227,-0.9038696,0.07904053,-15.59375,36.171875,-23.25
1635457360100,0.08081055,-0.85357666,0.090270996,-11.25,37.96875,-23.671875
1635457360138,0.07373047,-0.815979,0.1593628,-10.796875,39.796875,-25.953125
1635457360175,0.11450195,-0.8491821,0.21453857,-4.265625,45.875,-27.234375
1635457360212,0.031982422,-0.9841919,0.20648193,-6.640625,40.34375,-21.828125
1635457360249,-0.07739258,-0.8435669,0.057556152,-8.984375,53.265625,-15.53125
