# Sensor type: Respeck
# Activity type: Movement
# Activity code: 9
# Subject id: s1820742
# Notes: 
timestamp,accel_x,accel_y,accel_z,gyro_x,gyro_y,gyro_z
1635438261106,-0.014892578,-0.9776001,0.29412842,0.984375,12.71875,-3.6875
1635438261143,2.4414062E-4,-0.97442627,0.3131714,1.25,13.21875,-3.53125
1635438261180,-0.0043945312,-0.991272,0.31536865,2.46875,13.328125,-3.0625
1635438261217,0.018310547,-0.9817505,0.2975464,2.234375,12.359375,-2.171875
1635438261276,0.020019531,-0.9656372,0.29193115,4.265625,11.359375,-1.625
1635438261312,0.055664062,-0.96539307,0.28607178,2.28125,7.375,-0.875
1635438261349,0.06616211,-0.96051025,0.27264404,2.59375,3.375,-0.640625
1635438261387,0.042236328,-0.9639282,0.26556396,3.09375,1.9375,-1.3125
1635438261424,0.04711914,-1.0042114,0.27581787,4.296875,-2.21875,-3.203125
1635438261461,-0.0063476562,-0.9776001,0.2506714,4.984375,0.390625,-3.5
1635438261499,-0.009521484,-1.0044556,0.25408936,5.4375,1.28125,-3.484375
1635438261538,0.028320312,-0.9783325,0.25335693,7.21875,2.546875,-1.8125
1635438261574,0.011230469,-0.98638916,0.24310303,8.3125,2.734375,-0.84375
1635438261668,-0.022216797,-0.987854,0.21356201,10.125,4.703125,-0.765625
1635438261672,-0.03491211,-1.0100708,0.16351318,13.171875,6.015625,-0.015625
1635438261706,-0.018554688,-0.97491455,0.16693115,13.875,9.734375,0.734375
1635438261743,0.0021972656,-0.9824829,0.19891357,13.03125,6.765625,2.640625
1635438261780,0.038085938,-1.0261841,0.15228271,9.453125,-2.75,2.53125
1635438261819,-0.0048828125,-1.0686646,0.14276123,5.984375,-3.90625,0.84375
1635438261856,0.016601562,-1.0291138,0.14764404,2.765625,-6.921875,-0.34375
1635438261893,0.0036621094,-0.9780884,0.15911865,0.78125,-7.046875,0.8125
1635438261931,0.014404297,-0.9837036,0.13201904,1.9375,-12.34375,1.328125
1635438261970,0.008056641,-1.0064087,0.14324951,1.09375,-14.90625,0.796875
1635438262006,-0.0014648438,-1.0232544,0.13104248,-0.578125,-16.609375,0.796875
1635438262043,0.015380859,-1.003479,0.13470459,-2.28125,-18.171875,0.859375
1635438262099,0.0053710938,-0.9927368,0.12322998,-0.34375,-17.828125,1.125
1635438262137,-4.8828125E-4,-0.9890747,0.116882324,-0.546875,-15.046875,1.140625
1635438262174,0.0068359375,-0.9692993,0.11468506,-0.1875,-12.203125,1.15625
1635438262212,0.022460938,-0.9734497,0.10345459,-0.328125,-6.1875,1.125
1635438262249,0.0146484375,-0.98565674,0.09857178,-0.640625,-1.0625,0.453125
1635438262287,0.029296875,-0.9963989,0.08880615,0.265625,1.96875,-0.640625
1635438262324,0.0075683594,-0.9714966,0.090026855,0.65625,7.046875,-2.890625
1635438262362,-0.03466797,-0.9043579,0.1227417,-0.1875,14.5,-1.421875
1635438262400,0.049072266,-0.89849854,0.1696167,0.953125,15.828125,2.296875
1635438262437,0.26879883,-1.2632446,0.18206787,5.703125,8.9375,5.03125
1635438262492,0.21289062,-1.3184204,0.14569092,12.46875,11.1875,-2.484375
1635438262530,0.01977539,-1.0237427,0.28045654,8.0,5.390625,3.09375
1635438262568,-0.26293945,-1.0186157,0.26922607,10.53125,13.3125,-1.40625
1635438262605,-0.17749023,-1.0491333,0.3126831,9.625,25.828125,-4.390625
1635438262643,0.048828125,-1.2380981,0.3361206,-11.0,9.421875,-14.6875
1635438262681,-0.1394043,-0.86553955,0.021911621,2.90625,30.0,3.875
1635438262718,0.07348633,-0.8386841,0.2164917,1.1875,20.765625,-0.375
1635438262756,0.0087890625,-0.8765259,0.39105225,-2.78125,16.390625,-4.40625
1635438262793,0.088378906,-0.9209595,0.3139038,-17.078125,17.125,0.671875
1635438262831,0.013183594,-0.99298096,0.215271,-11.15625,1.6875,-0.296875
1635438262887,0.06591797,-1.0291138,0.0927124,-0.6875,-1.28125,-2.03125
1635438262924,0.045654297,-1.0178833,0.2164917,-3.5,-1.71875,-4.34375
1635438262962,0.026855469,-0.98565674,0.19891357,-5.25,-4.484375,-1.8125
1635438262999,0.07763672,-0.9348755,0.1539917,-6.9375,-2.671875,2.78125
1635438263037,0.18017578,-0.93829346,0.15301514,-4.09375,-7.3125,5.890625
1635438263074,0.16918945,-0.93585205,0.18255615,-3.734375,-9.28125,6.875
1635438263111,0.18408203,-0.83551025,0.13421631,0.078125,-8.71875,11.9375
1635438263150,0.21655273,-1.024231,0.07098389,5.03125,-12.296875,13.765625
1635438263186,0.1315918,-0.84259033,0.112976074,15.671875,-4.921875,12.859375
1635438263224,-0.0546875,-1.3943481,0.09637451,13.640625,5.9375,7.546875
1635438263261,0.083740234,-0.9949341,0.12200928,16.59375,18.609375,1.640625
1635438263318,-0.07299805,-0.99664307,0.36883545,12.734375,11.5625,-0.203125
1635438263355,-0.083740234,-0.8928833,0.49920654,23.859375,11.28125,8.109375
1635438263393,-0.18432617,-2.0,0.13226318,-5.5,5.046875,-0.0625
1635438263431,0.24169922,-0.35064697,0.28851318,21.28125,25.921875,-2.53125
1635438263469,-0.23168945,-1.1900024,0.5441284,2.03125,20.125,-3.890625
1635438263524,0.047607422,-0.7769165,0.09320068,4.109375,7.765625,0.765625
1635438263543,-0.12646484,-0.9475708,0.06536865,12.90625,-9.625,-7.84375
1635438263581,0.008300781,-0.93463135,0.15863037,11.078125,-0.484375,-5.515625
1635438263618,-0.03100586,-0.91534424,0.18133545,5.046875,-0.25,-1.53125
1635438263656,-0.060546875,-1.0593872,0.0836792,9.0625,0.8125,2.71875
1635438263712,-0.09790039,-1.0371704,0.08465576,2.234375,4.90625,3.859375
1635438263749,-0.001953125,-0.98883057,0.06756592,-9.578125,11.75,4.875
1635438263787,0.064208984,-0.99591064,0.0524292,-5.171875,11.125,0.25
1635438263824,0.10864258,-0.96343994,0.054138184,-2.953125,5.125,-0.21875
1635438263862,0.16088867,-0.9692993,0.023620605,-3.71875,3.453125,0.171875
1635438263898,0.19873047,-0.97076416,-0.03253174,-5.140625,-2.125,-0.78125
1635438263935,0.18164062,-0.95318604,-0.0725708,-2.875,-4.609375,-2.84375
1635438263974,0.20581055,-0.96221924,-0.09674072,0.375,-6.8125,-3.21875
1635438264015,0.1550293,-0.88409424,-0.0869751,3.125,-5.21875,-1.359375
1635438264050,0.16674805,-0.89141846,-0.04498291,6.734375,-7.8125,1.703125
1635438264106,0.20703125,-0.9463501,-0.0134887695,16.875,-16.203125,6.203125
1635438264143,0.19580078,-1.3279419,0.10369873,20.734375,-30.90625,0.359375
1635438264181,-0.0075683594,-1.2546997,0.2909546,4.109375,-11.078125,-1.75
1635438264218,-0.045410156,-1.1397095,0.30584717,-5.578125,-3.015625,-0.25
1635438264256,-0.1496582,-1.0960083,0.23480225,-0.6875,-2.71875,-2.5625
1635438264293,0.114746094,-1.2195435,0.2506714,-1.734375,-2.46875,-1.390625
1635438264330,-0.030761719,-0.97906494,0.18841553,-7.953125,2.3125,-0.25
1635438264367,-0.03173828,-0.85528564,0.16229248,-4.359375,9.328125,2.984375
1635438264406,0.08886719,-0.8184204,0.23236084,-4.90625,10.8125,0.84375
1635438264444,0.12207031,-0.87945557,0.21673584,-7.53125,5.15625,-0.25
1635438264480,0.12646484,-0.9048462,0.2506714,-7.578125,1.671875,-1.03125
1635438264537,0.087646484,-0.9873657,0.18304443,-4.9375,-4.65625,-4.015625
1635438264575,0.13256836,-0.9993286,0.20257568,-5.734375,-8.546875,-3.765625
1635438264612,0.079589844,-0.99713135,0.19476318,-5.1875,-11.265625,-2.5625
1635438264650,0.063964844,-1.00177,0.17938232,-5.0625,-13.875,-1.84375
1635438264687,0.08544922,-0.9590454,0.168396,-6.203125,-13.03125,-2.203125
1635438264725,0.13232422,-0.9456177,0.16888428,-6.703125,-14.078125,-0.296875
1635438264762,0.21923828,-0.9368286,0.15057373,-6.53125,-19.71875,4.109375
1635438264800,0.26293945,-0.96832275,0.16644287,-0.140625,-26.78125,4.734375
1635438264837,0.22045898,-1.0095825,0.13250732,5.015625,-34.21875,6.46875
1635438264875,0.20922852,-0.89971924,0.08905029,9.59375,-31.0,6.375
1635438264931,0.14404297,-0.9480591,0.13446045,14.734375,-25.796875,8.125
1635438264968,0.064941406,-1.1106567,0.13348389,17.140625,-22.453125,9.515625
1635438265005,0.001953125,-1.194397,0.12640381,19.15625,-6.484375,4.75
1635438265043,-0.107666016,-1.2078247,0.10418701,15.71875,19.15625,5.015625
1635438265081,-0.095214844,-0.99346924,0.23406982,11.71875,30.5,-0.875
1635438265118,0.0715332,-1.003479,0.25946045,11.921875,19.953125,4.71875
1635438265156,-0.038085938,-1.3015747,0.14251709,9.09375,10.28125,3.203125
1635438265194,0.0073242188,-0.93634033,0.14569092,8.484375,14.6875,-1.984375
1635438265231,0.07861328,-1.0737915,0.262146,6.546875,16.0625,-2.75
1635438265268,0.013916016,-0.8665161,0.22796631,7.84375,13.21875,0.546875
1635438265324,-0.122558594,-0.928772,0.12005615,0.078125,9.375,-5.15625
1635438265361,-0.020996094,-0.9314575,0.09222412,0.15625,7.859375,-6.984375
1635438265399,-0.060791016,-0.9932251,0.08270264,-5.640625,6.65625,-9.953125
1635438265437,-0.0234375,-1.0300903,0.1161499,-11.78125,12.0625,-9.3125
1635438265474,0.044189453,-1.0076294,0.11248779,-12.28125,9.140625,-6.71875
1635438265512,-0.0021972656,-0.9949341,0.11590576,-14.875,11.21875,-7.03125
1635438265568,0.0061035156,-0.95513916,0.082458496,-13.234375,12.0,-6.3125
1635438265587,0.007080078,-0.9602661,0.074401855,-11.921875,15.578125,-4.609375
1635438265624,0.024902344,-0.9661255,0.053649902,-9.765625,20.953125,-2.78125
1635438265662,0.068847656,-0.9746704,0.016052246,-4.109375,24.90625,-0.96875
1635438265700,0.18652344,-1.0073853,-0.009338379,3.21875,24.1875,1.46875
1635438265755,0.15478516,-0.9348755,0.007507324,6.265625,23.25,1.359375
1635438265792,0.28100586,-1.060852,0.10858154,19.84375,18.203125,5.5
1635438265830,0.29833984,-1.097229,0.13934326,17.421875,-3.15625,1.640625
1635438265868,0.091308594,-1.0291138,0.22161865,19.796875,5.703125,2.546875
1635438265906,0.009521484,-0.98443604,0.25604248,10.21875,-1.03125,6.65625
1635438265943,-2.4414062E-4,-1.0454712,0.2345581,2.90625,-4.453125,7.265625
1635438265981,-0.1027832,-1.0217896,0.23406982,2.953125,10.96875,4.390625
1635438266018,0.2607422,-1.4231567,0.38323975,-19.09375,-1.296875,-3.078125
1635438266055,-0.06323242,-1.0379028,0.117614746,12.71875,19.78125,-0.234375
1635438266092,0.10595703,-0.9221802,0.17694092,11.046875,9.390625,5.390625
1635438266150,0.053955078,-0.8049927,0.28094482,11.71875,0.859375,2.796875
1635438266187,0.14697266,-0.8508911,0.276062,-5.671875,-8.03125,6.890625
1635438266225,0.0625,-0.8936157,0.23284912,-11.921875,-3.75,1.421875
1635438266262,0.11645508,-0.9614868,0.1864624,-5.53125,-13.296875,1.609375
1635438266299,0.15698242,-1.0432739,0.19915771,-4.625,-16.6875,-0.875
1635438266336,0.12695312,-0.9819946,0.17791748,-7.234375,-17.359375,-0.109375
1635438266374,0.14819336,-0.9727173,0.16131592,-10.234375,-27.640625,3.765625
1635438266412,0.18139648,-0.96759033,0.19281006,-9.984375,-30.78125,3.578125
1635438266449,0.17822266,-0.96051025,0.16546631,-7.890625,-28.5,3.09375
1635438266487,0.19116211,-0.9663696,0.15081787,-5.609375,-28.359375,0.765625
1635438266580,0.2084961,-0.9458618,0.15570068,-3.9375,-22.078125,-2.25
1635438266584,0.21875,-0.9429321,0.17889404,-2.640625,-21.515625,-0.8125
1635438266618,0.19873047,-0.9109497,0.1618042,-1.671875,-19.3125,2.59375
1635438266655,0.22094727,-0.9143677,0.12298584,3.84375,-16.0,4.25
1635438266693,0.16430664,-0.9314575,0.112976074,10.125,-9.25,3.1875
1635438266731,0.21166992,-0.86553955,0.12908936,18.609375,-3.875,4.375
1635438266768,0.14819336,-0.96759033,0.07342529,24.578125,2.65625,6.546875
1635438266806,0.1027832,-1.3069458,0.04510498,16.34375,11.75,0.453125
1635438266843,-0.0703125,-1.2539673,0.15057373,13.859375,34.96875,-10.3125
1635438266881,-0.061035156,-0.98760986,0.44866943,18.953125,21.46875,-4.453125
1635438266918,0.21435547,-1.0176392,0.4623413,13.25,3.203125,13.03125
1635438266974,-0.10839844,-1.4417114,0.14715576,-3.328125,7.078125,7.578125
1635438267012,0.048095703,-1.0230103,0.09906006,9.671875,7.859375,-10.6875
1635438267050,0.009033203,-0.7354126,0.40838623,19.984375,20.109375,2.265625
1635438267087,-0.08569336,-0.9751587,0.21429443,14.84375,16.9375,6.453125
1635438267125,-0.05810547,-0.85821533,0.047302246,-1.140625,11.046875,-3.25
1635438267162,-0.045654297,-1.0476685,0.08392334,-3.390625,11.359375,-8.78125
1635438267199,0.06762695,-0.9873657,0.13421631,-10.078125,13.515625,-10.125
1635438267236,0.057617188,-1.0117798,0.16473389,-11.203125,18.390625,-5.75
1635438267275,0.07348633,-1.0078735,0.12200928,-9.25,20.734375,-4.53125
1635438267311,0.033691406,-0.98272705,0.09710693,-10.03125,19.40625,-3.578125
1635438267368,0.10571289,-1.0269165,0.07489014,-13.375,21.28125,-2.984375
1635438267406,0.11328125,-0.98760986,0.036315918,-10.765625,22.0,-4.984375
1635438267443,0.11010742,-0.9883423,0.013366699,-9.78125,23.828125,-4.15625
1635438267481,0.14575195,-0.958313,0.018981934,-7.140625,24.421875,-4.53125
1635438267518,0.13061523,-0.94415283,0.018005371,-1.578125,25.515625,-3.515625
1635438267556,0.19262695,-0.9360962,-0.0095825195,3.4375,20.375,-1.484375
1635438267593,0.17504883,-0.8792114,-0.038879395,6.015625,14.34375,-0.65625
1635438267631,0.14453125,-0.89385986,-0.019592285,8.59375,10.03125,-0.359375
1635438267668,0.1459961,-0.9019165,-0.012268066,8.703125,7.296875,-0.609375
1635438267706,0.28344727,-1.0930786,0.028259277,12.78125,4.515625,1.765625
1635438267800,0.34448242,-1.2666626,0.14447021,21.9375,-1.25,1.140625
1635438267804,0.23779297,-1.0217896,0.2579956,17.625,13.765625,8.90625
1635438267837,0.040283203,-1.2554321,0.4100952,-2.734375,-12.78125,11.21875
1635438267874,-0.23608398,-1.0628052,0.14105225,23.4375,-15.15625,-1.390625
1635438267912,0.27954102,-1.5100708,0.3168335,-4.234375,-9.15625,-4.796875
1635438267950,-0.107666016,-0.9751587,0.062683105,12.84375,9.03125,1.4375
1635438267987,0.042236328,-0.8550415,0.17449951,6.390625,6.015625,3.796875
1635438268024,0.1652832,-0.7893677,0.30218506,2.21875,-8.375,1.421875
1635438268080,0.16796875,-0.8413696,0.21575928,-8.9375,-11.203125,6.9375
1635438268100,0.13183594,-0.8892212,0.15350342,-10.71875,-6.125,3.125
1635438268156,0.18554688,-0.9636841,0.16497803,-9.25,-19.984375,-1.796875
1635438268193,0.1730957,-0.9817505,0.23284912,-5.765625,-21.0,-2.375
1635438268230,0.18530273,-1.00177,0.093933105,-8.1875,-29.40625,-0.4375
1635438268268,0.19165039,-0.9702759,0.105163574,-0.3125,-27.171875,-1.046875
1635438268306,0.20581055,-0.92926025,0.054626465,-2.03125,-24.78125,-0.390625
1635438268343,0.20751953,-0.9859009,0.0836792,-2.515625,-27.34375,-1.84375
1635438268380,0.24072266,-0.94903564,0.038269043,1.84375,-20.578125,-1.265625
1635438268419,0.23022461,-0.92193604,0.06072998,1.078125,-15.5,0.15625
1635438268456,0.20922852,-0.88946533,0.066101074,4.546875,-13.46875,0.609375
1635438268494,0.20092773,-0.86798096,0.07684326,10.65625,-8.828125,0.828125
1635438268530,0.18164062,-0.87750244,0.105651855,12.375,-8.234375,0.375
1635438268587,0.11254883,-0.8718872,0.07318115,19.390625,0.640625,2.109375
1635438268624,0.07055664,-1.2236938,-0.013977051,19.671875,4.53125,2.359375
1635438268662,0.053466797,-1.343811,0.0211792,18.296875,22.078125,-8.5625
1635438268699,-0.09863281,-1.1836548,0.16497803,16.671875,22.078125,-8.25
1635438268737,0.068115234,-1.0786743,0.39788818,10.15625,0.984375,2.71875
1635438268774,-0.064941406,-1.4710083,0.23284912,5.15625,2.671875,4.28125
1635438268812,0.01953125,-0.8867798,0.062683105,-0.015625,7.703125,-7.28125
1635438268850,-0.01953125,-0.8821411,0.23040771,8.828125,11.09375,-2.734375
1635438268887,-0.051513672,-0.86553955,0.13616943,10.90625,9.421875,1.25
1635438268924,-0.09716797,-0.90826416,-0.022033691,2.46875,4.671875,-3.75
1635438268980,-0.045166016,-1.0007935,-0.008605957,-0.90625,5.40625,-7.0625
1635438269017,0.029296875,-1.0078735,0.059020996,-6.0,6.625,-4.484375
1635438269055,0.045166016,-1.0410767,0.09515381,-9.203125,6.15625,-1.484375
1635438269092,0.056396484,-1.0164185,0.055358887,-4.5625,11.59375,0.96875
1635438269131,0.09399414,-0.92510986,0.010925293,-1.578125,17.296875,1.375
1635438269168,0.041748047,-1.008606,0.022399902,-7.0,15.828125,-0.640625
1635438269206,0.110839844,-0.9795532,-0.031066895,-5.5,15.234375,-2.734375
1635438269243,0.08935547,-0.98223877,0.010925293,-6.765625,14.765625,-4.078125
1635438269281,0.12695312,-0.9961548,-0.0068969727,-7.140625,15.890625,-2.9375
1635438269318,0.11767578,-0.95147705,0.0026245117,-8.484375,15.75,-2.84375
1635438269375,0.09692383,-0.98443604,0.0038452148,-8.40625,14.515625,-2.703125
1635438269412,0.092285156,-0.97491455,-0.008361816,-8.03125,18.375,-2.515625
1635438269449,0.13427734,-0.96954346,-0.024230957,-6.71875,16.9375,-2.09375
1635438269487,0.1105957,-0.9348755,-0.027648926,-3.875,18.1875,-1.484375
1635438269524,0.17773438,-0.9331665,-0.026428223,-2.09375,17.4375,-0.515625
1635438269562,0.13500977,-0.8464966,0.0099487305,0.265625,15.546875,0.765625
1635438269600,0.10888672,-0.8374634,-3.0517578E-4,7.921875,11.265625,4.171875
1635438269637,0.3552246,-1.0862427,0.0026245117,13.109375,1.5625,5.09375
1635438269674,0.23388672,-1.2991333,0.20159912,14.65625,3.09375,-1.140625
1635438269713,0.12207031,-1.2932739,0.28729248,8.984375,-6.265625,0.296875
1635438269750,-0.103759766,-1.1607056,0.33050537,-1.875,0.3125,-1.421875
1635438269806,-0.15063477,-1.4417114,0.20428467,7.90625,0.453125,-6.078125
1635438269843,-0.13793945,-1.0745239,0.08538818,13.90625,13.109375,-5.109375
1635438269881,0.036376953,-0.92755127,0.18865967,-1.09375,16.328125,4.890625
1635438269918,0.09643555,-0.7546997,0.24920654,-3.78125,9.59375,4.328125
1635438269955,0.10058594,-0.7781372,0.24188232,-5.859375,1.34375,7.046875
1635438269993,0.107666016,-0.87335205,0.16741943,-10.5625,-0.0625,4.4375
1635438270031,0.12231445,-0.9234009,0.18743896,-9.875,-8.828125,1.1875
1635438270068,0.140625,-1.0151978,0.21038818,-3.625,-18.015625,-1.421875
1635438270106,0.114990234,-0.99005127,0.15789795,0.390625,-26.8125,-0.359375
1635438270143,0.103759766,-0.9944458,0.120788574,-1.015625,-33.796875,0.890625
1635438270200,0.14892578,-1.0090942,0.152771,-4.640625,-35.984375,-0.359375
1635438270238,0.16674805,-0.95147705,0.12005615,-4.21875,-38.71875,2.140625
1635438270273,0.14672852,-0.98321533,0.08807373,-1.375,-37.296875,2.96875
1635438270315,0.15966797,-0.9717407,0.057556152,1.828125,-30.171875,1.65625
1635438270350,0.18408203,-0.9365845,0.062438965,3.546875,-22.640625,2.109375
1635438270387,0.21850586,-0.90045166,0.10296631,5.0625,-19.1875,3.53125
1635438270424,0.1706543,-0.87579346,0.10321045,3.421875,-14.625,5.515625
1635438270462,0.1850586,-0.8814087,0.07879639,11.609375,-10.640625,8.140625
1635438270500,0.16113281,-0.835022,0.023132324,16.53125,-3.296875,8.625
1635438270556,0.08300781,-1.145813,0.028015137,26.359375,3.15625,8.234375
1635438270593,0.13574219,-1.4907837,-0.0044555664,31.328125,14.828125,-2.703125
1635438270633,-0.045410156,-1.1428833,0.07293701,19.40625,27.828125,-2.515625
1635438270668,-0.0075683594,-1.1091919,0.38983154,23.421875,-0.515625,7.3125
1635438270705,-0.0087890625,-1.1831665,0.26312256,13.953125,-12.40625,11.265625
1635438270743,0.015625,-1.2151489,-0.20904541,15.5,-3.890625,2.375
1635438270780,0.095947266,-0.80474854,-0.008850098,20.0,1.578125,0.21875
1635438270818,-0.026855469,-0.82647705,0.18695068,8.484375,-7.828125,2.25
1635438270856,-7.324219E-4,-0.8167114,-0.042297363,10.8125,-11.1875,3.5
1635438270893,-0.029541016,-0.97735596,-0.14630127,5.109375,-8.234375,-3.15625
1635438270930,-0.042236328,-1.0481567,-0.08331299,2.59375,3.296875,-6.390625
1635438270968,-0.06347656,-1.0366821,0.010192871,-6.46875,13.078125,-4.515625
1635438271024,-2.4414062E-4,-1.0081177,-0.0064086914,-9.484375,20.140625,-1.3125
1635438271062,0.06201172,-0.9841919,-0.09210205,-8.8125,30.1875,0.625
1635438271099,0.1274414,-0.9614868,-0.11553955,-9.5,30.875,0.375
1635438271137,0.13623047,-0.96099854,-0.10308838,-5.609375,37.921875,0.46875
1635438271175,0.15234375,-1.024231,-0.12359619,-5.484375,45.1875,1.15625
1635438271212,0.15942383,-0.99420166,-0.1585083,-3.984375,44.46875,0.234375
1635438271249,0.14038086,-0.97857666,-0.14385986,-8.96875,49.6875,-1.28125
1635438271287,0.10961914,-0.9524536,-0.16143799,-9.25,51.984375,-0.8125
1635438271325,0.15917969,-0.91729736,-0.20196533,-10.15625,48.75,0.671875
1635438271362,0.1538086,-0.87750244,-0.20440674,-11.1875,44.90625,2.265625
1635438271418,0.18652344,-0.85284424,-0.22125244,-8.640625,39.953125,3.921875
1635438271456,0.17041016,-0.78302,-0.23980713,-3.046875,35.578125,5.59375
1635438271495,0.22290039,-0.8670044,-0.21490479,2.9375,24.703125,6.59375
1635438271531,0.36865234,-1.0679321,-0.16656494,14.75,12.359375,4.734375
1635438271568,0.25146484,-1.361145,0.19793701,16.4375,24.796875,-4.234375
1635438271605,-2.4414062E-4,-1.3113403,0.22064209,-5.859375,35.28125,4.3125
1635438271643,0.22949219,-1.5066528,0.18060303,-6.9375,11.609375,6.546875
1635438271681,0.29882812,-1.4043579,0.26654053,-9.921875,22.46875,1.125
1635438271718,0.13696289,-1.0322876,0.074401855,-22.125,-2.296875,6.09375
1635438271755,-0.06591797,-0.8501587,0.12567139,-11.359375,5.53125,1.375
1635438271812,0.15185547,-0.59503174,0.22576904,-19.21875,20.625,3.859375
1635438271849,0.17602539,-0.6560669,0.22991943,-19.9375,14.328125,4.234375
1635438271887,0.19458008,-0.79693604,0.20550537,-15.265625,0.265625,-0.53125
1635438271925,0.21069336,-0.91778564,0.14422607,-6.96875,-10.328125,-2.0
1635438271962,0.25195312,-1.0752563,0.16888428,-6.65625,-21.375,-2.71875
1635438271999,0.19726562,-1.0076294,0.13348389,-1.703125,-29.984375,0.4375
1635438272037,0.24072266,-1.0066528,0.1293335,-6.359375,-37.890625,4.125
1635438272073,0.23291016,-0.96417236,0.117126465,-3.203125,-45.171875,9.34375
1635438272112,0.2253418,-0.9456177,0.06781006,8.5625,-50.65625,12.46875
1635438272150,0.22729492,-0.98565674,0.04510498,11.0,-51.234375,10.5
1635438272187,0.18017578,-0.9475708,0.055358887,12.0,-46.484375,5.359375
1635438272243,0.18041992,-0.9282837,0.06756592,9.96875,-39.9375,4.046875
1635438272281,0.15917969,-0.93536377,0.0836792,10.71875,-37.140625,2.4375
1635438272336,0.17675781,-0.91851807,0.059509277,11.34375,-33.375,1.953125
1635438272355,0.18945312,-0.8933716,0.03265381,12.546875,-28.546875,0.625
1635438272393,0.19116211,-0.8604126,-0.0076293945,14.203125,-22.15625,-0.03125
1635438272431,0.25708008,-0.88946533,-0.027160645,16.4375,-19.1875,-1.03125
1635438272468,0.18481445,-0.86309814,-0.044006348,21.953125,-7.734375,-1.953125
1635438272506,0.1237793,-0.84747314,0.008483887,25.25,2.65625,0.671875
1635438272543,0.11230469,-1.7192993,-0.09429932,22.5625,-8.09375,-1.984375
1635438272581,0.09399414,-1.3855591,-0.09674072,23.078125,-10.109375,-9.875
1635438272636,-0.04638672,-1.1868286,0.6000366,42.75,-2.453125,-10.203125
1635438272675,-0.17553711,-1.4353638,0.5018921,2.703125,-7.234375,11.15625
1635438272712,0.19311523,-1.4483032,-0.33770752,2.296875,-34.578125,4.828125
1635438272750,0.14257812,-0.6868286,0.17059326,23.015625,17.34375,3.578125
1635438272787,-0.1171875,-0.62164307,0.27801514,7.328125,6.25,9.75
1635438272824,-0.080078125,-0.7202759,-0.07989502,12.59375,-7.140625,6.859375
1635438272862,0.119384766,-0.8442993,-0.22589111,4.890625,-15.0625,-3.09375
1635438272900,0.088134766,-0.991272,-0.045959473,5.578125,-19.65625,-9.359375
1635438272937,0.0107421875,-1.0779419,0.035095215,-1.890625,-10.0625,-3.234375
1635438272975,0.07104492,-1.0405884,-0.047668457,-11.5,-5.859375,-4.453125
1635438273031,0.091308594,-1.0320435,-0.081848145,-6.234375,4.84375,-7.21875
1635438273068,0.09350586,-0.9800415,-0.04498291,-5.09375,13.984375,-8.421875
1635438273106,0.11450195,-0.9702759,-0.062316895,-10.109375,17.734375,-8.796875
1635438273143,0.09033203,-0.9668579,-0.101379395,-11.609375,23.203125,-8.5
1635438273180,0.06933594,-0.98321533,-0.12530518,-14.0,33.359375,-6.296875
1635438273221,0.12841797,-0.9522095,-0.07281494,-15.296875,41.578125,-2.953125
1635438273256,0.16625977,-0.93829346,-0.097473145,-15.15625,40.4375,-1.890625
1635438273293,0.20825195,-0.9170532,-0.12823486,-10.671875,39.40625,0.78125
1635438273331,0.20410156,-0.9273071,-0.17559814,-6.109375,39.140625,1.6875
1635438273368,0.048095703,-0.8555298,-0.15386963,-5.859375,45.796875,1.734375
1635438273406,0.10864258,-0.94000244,-0.06573486,-4.40625,43.609375,4.578125
1635438273462,0.10571289,-0.956604,0.03753662,0.046875,36.203125,8.296875
1635438273499,0.47021484,-1.6226196,0.21624756,6.53125,24.640625,8.265625
1635438273537,0.0075683594,-1.5066528,0.48919678,-24.28125,83.03125,0.46875
1635438273575,0.15576172,-1.0918579,0.4105835,-16.46875,64.4375,13.46875
1635438273612,0.1899414,-1.3064575,0.3727417,-18.171875,47.796875,11.140625
1635438273650,0.16577148,-0.9314575,0.007507324,-15.8125,68.515625,5.953125
1635438273687,0.23510742,-0.63897705,0.109802246,-24.203125,69.921875,7.640625
1635438273724,0.20092773,-0.63897705,0.16229248,-11.71875,56.53125,4.5
1635438273762,0.28125,-0.8201294,0.16619873,-15.0,47.765625,-0.515625
1635438273800,0.26782227,-0.89849854,0.16229248,-8.0,36.71875,-2.546875
1635438273856,0.30908203,-0.9378052,0.1293335,-1.03125,28.96875,-2.921875
1635438273893,0.2211914,-0.95318604,0.097595215,-4.265625,16.296875,-3.171875
1635438273929,0.21142578,-0.9439087,0.10369873,-6.75,10.265625,-5.703125
1635438273967,0.3310547,-0.8850708,0.105895996,-7.875,6.65625,-1.953125
1635438274006,0.29833984,-0.9002075,0.06585693,-2.609375,-2.15625,-2.171875
1635438274043,0.29589844,-0.8399048,0.04071045,2.921875,-3.4375,-1.40625
1635438274081,0.25634766,-0.9229126,0.050476074,3.4375,-14.25,-4.671875
1635438274120,0.2709961,-0.9702759,0.030456543,3.34375,-18.390625,-2.75
1635438274156,0.2541504,-1.0545044,0.022155762,1.03125,-11.578125,-3.09375
1635438274193,0.2619629,-0.956604,-0.020080566,3.328125,-14.953125,7.3125
1635438274249,0.31689453,-0.9678345,-0.022033691,6.328125,-22.34375,9.921875
1635438274287,0.30029297,-0.93634033,-0.055725098,7.296875,-26.109375,10.390625
1635438274325,0.29077148,-0.86309814,-0.109680176,11.25,-27.53125,6.171875
1635438274363,0.27197266,-0.8196411,-0.043029785,17.21875,-27.25,3.375
1635438274399,0.14697266,-0.835022,-0.08087158,22.296875,-17.859375,-0.078125
1635438274438,0.13842773,-1.0276489,-0.16778564,22.40625,-18.0,-2.578125
1635438274474,0.40454102,-1.68927,0.11248779,20.6875,-18.21875,-16.484375
1635438274512,-0.033935547,-1.5803833,0.41082764,36.40625,-2.734375,-29.359375
1635438274550,-0.083496094,-1.2315063,0.45843506,12.984375,13.3125,-5.8125
1635438274587,0.20629883,-1.364563,0.4237671,0.828125,1.609375,9.296875
1635438274625,0.12719727,-0.9783325,0.18939209,11.125,17.796875,5.4375
1635438274680,0.13085938,-0.8323364,0.15765381,18.484375,35.390625,9.484375
1635438274719,0.007080078,-0.6748657,0.02532959,24.671875,32.75,8.28125
1635438274755,0.021728516,-0.7258911,-0.10723877,22.046875,25.65625,6.140625
1635438274793,0.080566406,-0.8648071,-0.086242676,10.484375,21.125,1.46875
1635438274831,0.17382812,-1.0029907,-0.105773926,6.015625,16.203125,0.828125
1635438274869,0.15307617,-0.9976196,-0.10406494,5.09375,24.34375,1.921875
1635438274906,0.10668945,-1.0227661,-0.093811035,-1.15625,32.9375,2.59375
1635438274943,0.1081543,-0.99176025,-0.15533447,-4.328125,31.859375,1.34375
1635438274981,0.13964844,-0.97784424,-0.20709229,-8.984375,32.15625,-0.546875
1635438275023,0.08251953,-0.9229126,-0.21636963,-13.109375,35.140625,-2.1875
1635438275073,0.08862305,-0.9517212,-0.23345947,-13.90625,34.3125,-1.421875
1635438275112,0.07055664,-0.95758057,-0.2612915,-14.46875,37.53125,-0.84375
1635438275149,0.07104492,-0.9258423,-0.24542236,-17.578125,41.140625,-0.765625
1635438275187,0.076171875,-0.9133911,-0.2366333,-17.34375,38.796875,1.046875
1635438275225,0.11035156,-0.89068604,-0.22149658,-18.96875,33.0,1.140625
1635438275262,0.05810547,-0.9182739,-0.20245361,-17.921875,25.484375,2.515625
1635438275300,-0.023925781,-0.9151001,-0.24468994,-18.109375,25.296875,2.796875
1635438275338,-0.03930664,-0.96881104,-0.269104,-20.671875,31.953125,1.625
1635438275375,-0.08544922,-0.91851807,-0.190979,-21.671875,32.8125,-0.15625
1635438275412,0.54956055,-1.3794556,-0.02520752,-4.84375,9.625,1.015625
1635438275468,0.4555664,-0.94854736,0.3883667,-3.578125,54.75,13.84375
1635438275506,-0.36108398,-1.4649048,0.27557373,-36.203125,51.015625,-14.5
1635438275543,0.08325195,-1.1792603,-0.019836426,2.125,39.5625,-1.421875
1635438275581,0.47265625,-1.1399536,0.25091553,-18.59375,58.265625,-1.796875
1635438275617,0.18725586,-1.0352173,0.078552246,-16.015625,41.09375,2.4375
1635438275656,0.12158203,-0.82525635,0.11248779,-20.890625,60.796875,3.78125
1635438275693,0.079833984,-0.7515259,0.21209717,-19.78125,68.34375,2.390625
1635438275730,0.06274414,-0.8242798,0.1876831,-15.453125,66.359375,-2.328125
1635438275769,0.12670898,-0.83380127,0.08148193,-15.609375,79.890625,-3.515625
1635438275824,0.11401367,-0.97125244,0.105651855,-12.53125,78.859375,-8.21875
1635438275843,0.064697266,-1.0349731,0.11419678,-9.96875,80.578125,-7.4375
1635438275900,0.064453125,-0.956604,0.06072998,-9.640625,84.1875,-5.640625
1635438275937,0.10864258,-0.98883057,0.109069824,-13.6875,84.0,-2.6875
1635438275993,0.07397461,-0.95880127,0.11224365,-14.6875,78.375,-3.15625
1635438276012,0.114746094,-0.9378052,0.08099365,-10.5,72.484375,-3.40625
1635438276050,0.08227539,-0.97540283,0.16986084,-12.8125,64.96875,-7.0625
1635438276087,0.0146484375,-0.8948364,0.18914795,-8.53125,57.3125,-5.671875
1635438276124,-0.037109375,-0.8904419,0.21502686,-6.25,51.390625,-4.34375
1635438276162,-0.0017089844,-0.9092407,0.1852417,-4.203125,51.59375,-2.828125
1635438276199,0.125,-0.98028564,0.28778076,-6.8125,46.15625,-5.765625
1635438276238,-0.04345703,-1.206604,0.25628662,2.03125,24.796875,-7.34375
1635438276293,0.27734375,-1.477356,-0.18829346,9.09375,9.984375,6.65625
1635438276330,0.7150879,-1.6199341,-0.27252197,1.265625,-7.0,15.21875
1635438276367,-0.2331543,-1.0154419,0.031188965,-14.640625,68.96875,-20.078125
1635438276407,0.43847656,-0.9788208,-0.19293213,-2.0,71.21875,4.140625
1635438276443,0.35351562,-1.0012817,-0.1326294,-7.0625,50.734375,-2.84375
1635438276481,0.32128906,-0.81256104,0.0036010742,-20.609375,35.015625,-7.65625
1635438276518,0.08911133,-0.8987427,-0.01373291,-5.75,29.84375,-6.171875
1635438276557,0.24365234,-0.9644165,-0.0647583,-6.90625,14.3125,-3.046875
1635438276592,0.28955078,-0.8555298,0.030456543,-6.0625,1.71875,-8.359375
1635438276725,0.18725586,-0.89727783,0.09661865,4.4375,4.09375,-3.671875
1635438276728,0.14526367,-0.9138794,0.055358887,11.65625,-14.03125,-0.734375
1635438276731,0.064697266,-0.91851807,0.078552246,9.421875,-18.75,-1.359375
1635438276762,0.045654297,-0.92071533,0.11102295,8.6875,-17.84375,0.421875
1635438276799,0.0107421875,-0.94659424,0.094177246,10.3125,-19.4375,0.15625
1635438276837,0.05859375,-0.9529419,0.07244873,11.453125,-23.6875,1.4375
1635438276875,0.047607422,-0.9512329,0.1149292,11.125,-27.59375,2.265625
1635438276912,-0.019042969,-0.91192627,0.16668701,8.859375,-24.546875,4.4375
1635438276950,0.032714844,-1.0105591,0.19573975,7.234375,-26.140625,7.171875
1635438276987,-0.045410156,-1.0022583,0.19207764,4.828125,-32.328125,8.34375
1635438277025,-0.103027344,-1.0317993,0.22406006,1.609375,-30.203125,5.34375
1635438277062,-0.14038086,-0.9690552,0.25994873,0.84375,-28.703125,0.328125
1635438277118,0.16723633,-1.5923462,0.08343506,-16.296875,-48.21875,-2.25
1635438277157,0.17358398,-1.2837524,-0.1362915,5.46875,12.078125,-4.359375
1635438277193,0.6816406,-1.0042114,-0.121398926,20.46875,4.890625,-8.640625
1635438277231,0.5187988,-1.1917114,0.05340576,-4.234375,-32.953125,-3.6875
1635438277268,0.38061523,-0.9944458,0.07635498,5.984375,-23.75,3.28125
1635438277306,0.35424805,-0.8323364,-0.006652832,-1.25,-23.609375,-0.15625
1635438277343,0.1586914,-1.0513306,0.038024902,6.65625,-22.65625,-3.65625
1635438277379,0.29345703,-0.8713989,0.016052246,6.171875,-1.015625,-3.09375
1635438277419,0.27563477,-0.8435669,0.10247803,-0.421875,-4.4375,-0.4375
1635438277456,0.20629883,-0.8921509,0.13690186,2.609375,-9.65625,2.609375
1635438277512,0.12866211,-0.9492798,0.09954834,-2.875,-5.09375,1.53125
1635438277549,0.20166016,-0.9192505,-0.09063721,6.953125,-14.203125,-4.796875
1635438277586,0.0793457,-1.0464478,0.2164917,4.453125,16.1875,-2.484375
1635438277625,0.028076172,-0.98809814,0.14984131,-1.59375,11.203125,-6.734375
1635438277662,0.14257812,-1.0237427,0.13250732,0.078125,18.015625,-7.171875
1635438277702,0.095458984,-1.008606,0.1593628,-3.234375,21.46875,-8.5625
1635438277737,0.13330078,-0.960022,0.18328857,-3.71875,16.453125,-5.875
1635438277775,0.095947266,-0.97784424,0.1906128,0.09375,14.109375,-6.75
1635438277812,0.064941406,-0.9170532,0.23944092,-1.078125,17.15625,-5.90625
1635438277849,0.018554688,-0.93756104,0.29388428,-0.03125,18.953125,-6.671875
1635438277906,0.028564453,-0.93292236,0.25872803,1.34375,21.53125,-5.90625
1635438277943,0.028808594,-0.95318604,0.24945068,1.609375,20.375,-4.625
1635438277981,0.06347656,-0.9763794,0.2736206,1.609375,23.96875,-2.515625
1635438278019,0.05444336,-0.96099854,0.25286865,-0.046875,21.59375,-2.21875
1635438278054,0.07421875,-0.93048096,0.27850342,-3.0625,15.515625,-0.125
1635438278092,0.020263672,-0.9541626,0.31658936,-2.453125,20.390625,-0.21875
1635438278130,-0.048095703,-1.3884888,0.16156006,-3.734375,6.46875,-0.46875
1635438278168,0.39208984,-1.2744751,-0.20635986,11.8125,3.140625,0.3125
1635438278206,0.16235352,-1.1900024,0.10223389,3.53125,-5.671875,-4.890625
1635438278244,-0.055419922,-0.93048096,0.13861084,-5.8125,10.609375,-11.796875
1635438278280,-0.095458984,-1.0588989,0.13201904,-4.5,16.390625,-7.703125
1635438278336,0.1665039,-0.94537354,-0.1116333,-4.703125,4.078125,-5.171875
1635438278374,0.11694336,-0.8833618,0.032409668,-8.53125,14.8125,-4.734375
1635438278412,0.14208984,-0.9368286,0.016540527,-2.40625,6.953125,-0.984375
1635438278449,0.034179688,-1.0254517,-0.059387207,-1.8125,5.4375,-2.453125
1635438278487,0.09863281,-0.9990845,-0.015197754,-2.90625,-1.765625,-3.8125
1635438278524,0.041259766,-1.0142212,0.05316162,-0.8125,-3.015625,-4.421875
1635438278561,0.1159668,-1.0354614,0.053649902,-2.0625,-6.046875,-2.171875
1635438278599,0.032958984,-0.9727173,0.015075684,3.40625,-5.90625,-2.515625
1635438278638,0.013916016,-0.98516846,0.028259277,9.84375,-0.75,-1.390625
1635438278674,0.010986328,-0.99224854,0.014343262,9.375,-6.546875,-1.015625
1635438278731,-0.010253906,-1.0029907,0.017028809,9.90625,-4.4375,-3.296875
1635438278769,-0.019042969,-1.0479126,0.0289917,10.390625,-5.078125,-6.90625
1635438278806,-0.021484375,-1.0339966,0.07269287,6.921875,-9.484375,-9.328125
1635438278844,-0.028564453,-1.0327759,0.07562256,2.328125,-22.984375,-10.4375
1635438278882,-0.032958984,-0.98809814,0.08905029,6.484375,-26.453125,-8.21875
1635438278918,-0.020751953,-1.0095825,0.090270996,7.65625,-32.296875,-7.96875
1635438278955,-0.099853516,-1.0425415,0.023376465,9.3125,-28.75,-8.140625
1635438278993,-0.08081055,-0.96221924,0.047058105,13.359375,-26.21875,-8.40625
1635438279030,-0.171875,-1.0022583,0.10272217,8.59375,-26.75,-5.3125
1635438279067,-0.16918945,-1.0090942,0.054138184,3.296875,-23.828125,-2.734375
1635438279124,-0.18261719,-0.99298096,0.046813965,4.125,-23.375,-1.625
1635438279162,-0.18530273,-0.99664307,0.082458496,3.34375,-18.90625,0.6875
1635438279199,-0.16699219,-0.99884033,0.07098389,0.53125,-13.375,1.78125
1635438279237,-0.17041016,-0.97857666,0.07684326,2.0,-12.96875,3.234375
1635438279274,-0.15673828,-0.99957275,0.0680542,0.84375,-10.375,3.484375
1635438279312,-0.15942383,-0.99176025,0.09124756,0.40625,-10.03125,4.265625
1635438279349,-0.16015625,-0.9890747,0.09295654,0.1875,-9.265625,4.640625
1635438279387,-0.15405273,-0.9883423,0.093688965,-0.6875,-10.15625,4.859375
1635438279424,-0.15429688,-0.99957275,0.09442139,-0.59375,-8.734375,4.984375
1635438279462,-0.14453125,-0.97540283,0.090026855,-0.640625,-9.515625,5.875
1635438279500,-0.17602539,-0.99957275,0.11517334,-0.859375,-8.671875,6.796875
1635438279555,-0.1640625,-0.99786377,0.13543701,-3.921875,-5.59375,6.90625
1635438279593,-0.10644531,-0.96539307,0.1408081,-4.25,-7.75,8.1875
1635438279631,-0.1081543,-0.9758911,0.12200928,-4.5625,-6.46875,9.90625
1635438279669,-0.12695312,-0.92852783,0.13665771,-5.15625,-6.328125,9.5625
1635438279705,-0.14746094,-0.87091064,0.20135498,-6.421875,-6.546875,10.40625
1635438279743,-0.1538086,-0.8286743,0.1984253,-9.59375,-4.171875,12.125
1635438279780,-0.18408203,-0.7913208,0.18914795,-9.921875,-4.1875,11.453125
1635438279819,-0.017089844,-1.3237915,-0.13433838,-16.640625,-13.265625,17.5625
1635438279854,0.38305664,-1.3667603,-0.061584473,3.375,40.40625,1.359375
1635438279893,0.61938477,-1.0195923,0.28656006,0.90625,1.625,5.71875
1635438279949,0.017822266,-1.3430786,0.081970215,-7.859375,-29.171875,25.875
1635438279987,0.28125,-0.9199829,-0.046936035,-5.375,8.984375,14.921875
1635438280024,0.24560547,-0.9824829,0.113220215,-6.578125,0.859375,9.53125
1635438280062,0.1640625,-0.88360596,0.024597168,0.296875,23.34375,14.671875
1635438280100,0.34472656,-0.89630127,0.07489014,-0.578125,10.515625,7.8125
1635438280137,0.35107422,-0.88604736,0.137146,0.828125,7.71875,8.1875
1635438280174,0.24804688,-0.93878174,0.16766357,3.5625,6.0,6.453125
1635438280211,0.20654297,-0.93927,0.15570068,3.203125,8.453125,4.796875
1635438280249,0.16796875,-0.9800415,0.18426514,4.9375,9.171875,4.484375
1635438280286,0.2331543,-1.0562134,0.2086792,4.109375,3.953125,4.234375
1635438280343,0.2097168,-1.1206665,0.2814331,3.59375,10.34375,4.0625
1635438280380,0.2253418,-1.3220825,0.26409912,1.28125,6.625,4.625
1635438280419,0.37036133,-1.2056274,0.12225342,-9.90625,9.875,10.015625
1635438280455,0.35229492,-1.1528931,0.11639404,-4.921875,5.4375,3.5
1635438280493,0.25708008,-1.029602,0.022888184,0.515625,12.796875,-1.328125
1635438280530,0.3022461,-0.8994751,0.057800293,-1.234375,12.09375,-4.828125
1635438280568,0.30810547,-0.8220825,0.043884277,-1.78125,12.296875,-6.171875
1635438280605,0.3647461,-0.88726807,0.1317749,-6.671875,2.375,-5.875
1635438280643,0.23730469,-0.8584595,0.097595215,-5.78125,4.34375,-9.84375
1635438280681,0.15332031,-0.7893677,0.02923584,-1.625,12.46875,-14.15625
1635438280718,0.29785156,-0.83721924,0.17181396,-3.46875,6.5625,-13.0625
1635438280774,0.2319336,-0.8875122,0.23944092,-7.71875,3.671875,-11.015625
1635438280812,0.16357422,-0.9180298,0.1281128,-3.421875,5.25,-9.859375
1635438280850,0.1628418,-0.9534302,0.2062378,0.5625,13.578125,-12.203125
1635438280887,0.11401367,-0.9480591,0.18182373,-4.015625,17.5,-9.75
1635438280924,0.15698242,-0.9414673,0.14764404,-4.875,21.265625,-8.40625
1635438280961,0.2241211,-1.0305786,0.19256592,-8.109375,15.703125,-8.484375
1635438281000,0.17822266,-1.045227,0.18572998,-4.078125,20.890625,-10.109375
1635438281037,0.21142578,-1.0093384,0.24310303,-4.109375,21.5,-11.03125
1635438281074,0.09350586,-0.93878174,0.27264404,-3.015625,28.53125,-11.078125
1635438281111,0.015380859,-0.9158325,0.26678467,-3.703125,30.984375,-7.109375
1635438281168,0.11206055,-0.928772,0.22283936,-4.203125,23.640625,-5.25
1635438281206,0.12670898,-0.9199829,0.24188232,-4.484375,17.59375,-3.34375
1635438281243,0.16674805,-0.93292236,0.25531006,-2.78125,10.75,0.34375
1635438281281,0.08935547,-0.9487915,0.2489624,-0.453125,9.84375,-2.578125
1635438281321,0.039794922,-1.0032349,0.24456787,1.84375,14.859375,-4.125
1635438281355,0.04248047,-0.97247314,0.3102417,-1.421875,17.71875,-5.21875
1635438281393,0.07763672,-1.0149536,0.33831787,-7.03125,10.15625,-5.625
1635438281430,0.115234375,-0.9885864,0.35394287,-3.359375,5.78125,-6.09375
1635438281468,0.06616211,-0.95147705,0.34735107,-3.421875,6.59375,-3.796875
1635438281506,0.07348633,-0.9734497,0.28045654,2.078125,9.390625,-2.671875
1635438281600,0.0715332,-0.8821411,0.26605225,2.4375,9.359375,-0.859375
1635438281603,0.05053711,-0.93096924,0.26019287,7.4375,9.21875,-0.703125
1635438281674,0.043701172,-0.9168091,0.2802124,10.765625,11.90625,-2.453125
1635438281678,0.22583008,-1.0586548,0.19085693,10.46875,-0.53125,0.890625
1635438281710,0.09277344,-0.9668579,0.19134521,21.640625,6.734375,1.203125
1635438281749,0.111572266,-0.9859009,0.18011475,25.109375,3.109375,4.40625
1635438281787,0.037109375,-1.0076294,0.13885498,32.125,9.09375,5.484375
1635438281824,0.1274414,-1.0418091,0.12005615,26.359375,7.625,7.59375
1635438281862,0.087402344,-1.0430298,-0.01763916,25.375,13.71875,9.1875
1635438281900,0.20458984,-1.0203247,-0.020080566,22.921875,9.421875,7.859375
1635438281937,0.25463867,-0.9846802,-0.042541504,24.09375,5.90625,7.375
1635438281993,0.19042969,-0.9417114,-0.057922363,24.96875,3.4375,8.9375
1635438282050,0.22021484,-0.9727173,-0.12286377,22.15625,-0.5625,9.359375
1635438282068,0.22485352,-0.91290283,-0.19317627,22.484375,2.21875,7.921875
1635438282105,0.19140625,-0.9295044,-0.1609497,21.65625,0.40625,6.609375
1635438282162,0.23339844,-0.9505005,-0.18389893,20.03125,-1.40625,6.65625
1635438282181,0.25463867,-0.92193604,-0.22247314,19.671875,-1.734375,6.515625
1635438282219,0.24291992,-0.9495239,-0.22198486,19.75,-2.75,6.546875
1635438282256,0.26098633,-0.97613525,-0.29107666,18.140625,-2.640625,5.96875
1635438282293,0.27148438,-0.9795532,-0.31402588,15.953125,-3.3125,3.421875
1635438282331,0.28588867,-0.98223877,-0.28668213,13.140625,-1.828125,1.171875
1635438282386,0.27514648,-1.0061646,-0.29962158,6.96875,-1.140625,-2.546875
1635438282424,0.29541016,-1.0005493,-0.2859497,2.9375,-3.84375,-6.09375
1635438282462,0.27514648,-0.9939575,-0.24835205,-2.171875,-4.953125,-8.203125
1635438282499,0.2692871,-0.9985962,-0.27716064,-8.375,-5.390625,-11.1875
1635438282537,0.24975586,-0.9746704,-0.23370361,-13.9375,-6.6875,-13.21875
1635438282575,0.21191406,-0.94659424,-0.22735596,-17.3125,-4.75,-14.484375
1635438282612,0.18164062,-0.9529419,-0.23175049,-20.84375,-0.578125,-16.6875
1635438282649,0.19702148,-0.9273071,-0.22906494,-20.375,0.609375,-17.875
1635438282687,0.18041992,-0.9299927,-0.14678955,-21.296875,-1.953125,-18.640625
1635438282724,0.13696289,-0.94415283,-0.113586426,-23.34375,-6.125,-17.875
1635438282818,0.1418457,-0.9734497,-0.10626221,-21.125,-10.6875,-17.15625
1635438282825,0.11010742,-0.9578247,-0.04425049,-18.109375,-13.0625,-17.640625
1635438282856,0.09423828,-0.9446411,-0.0020141602,-17.265625,-14.59375,-16.1875
1635438282893,0.0847168,-0.9690552,0.018493652,-14.09375,-23.3125,-15.0625
1635438282931,0.03930664,-0.98223877,0.061706543,-12.296875,-25.734375,-14.09375
1635438282968,-0.017333984,-0.9780884,0.06488037,-7.65625,-25.90625,-13.75
1635438283006,-0.06738281,-0.9793091,0.08294678,-10.1875,-24.40625,-14.40625
1635438283042,-0.07543945,-0.9993286,0.089538574,-11.671875,-23.53125,-13.953125
1635438283080,-0.09692383,-0.98516846,0.14398193,-11.21875,-19.0,-14.09375
1635438283118,-0.12426758,-0.9902954,0.17352295,-12.53125,-15.171875,-10.1875
1635438283233,-0.14819336,-0.96661377,0.19354248,-12.625,-13.65625,-7.78125
1635438283235,-0.15844727,-0.99420166,0.22845459,-14.40625,-8.0625,-5.25
1635438283289,-0.1496582,-0.9631958,0.2567749,-9.015625,-7.765625,-2.578125
1635438283293,-0.19555664,-0.9590454,0.26385498,-5.90625,-4.625,-0.515625
1635438283324,-0.13720703,-0.95684814,0.25653076,-3.796875,-4.21875,2.578125
1635438283361,-0.15771484,-0.9619751,0.27508545,-3.609375,-3.734375,3.34375
1635438283401,-0.18286133,-0.9524536,0.31414795,-2.640625,-4.15625,4.90625
1635438283456,-0.16333008,-0.9710083,0.3168335,-1.625,-2.078125,6.484375
1635438283477,-0.1159668,-0.94976807,0.3126831,0.15625,-0.40625,9.34375
1635438283512,-0.118652344,-0.95758057,0.28851318,0.03125,0.546875,8.484375
1635438283549,-0.1418457,-0.9246216,0.3270874,0.9375,0.734375,9.53125
1635438283605,-0.15600586,-0.9282837,0.3283081,2.421875,2.375,9.8125
1635438283642,-0.15039062,-0.86187744,0.36029053,4.546875,3.03125,11.3125
1635438283681,-0.13989258,-0.88604736,0.29534912,5.203125,3.578125,13.15625
1635438283718,-0.09277344,-0.8616333,0.29730225,6.4375,5.546875,13.234375
1635438283774,-0.033691406,-0.8821411,0.449646,11.078125,0.84375,14.40625
1635438283793,-0.01953125,-1.2000122,0.27923584,-0.546875,4.015625,8.640625
1635438283831,0.08203125,-1.2105103,0.27703857,2.5625,14.078125,3.34375
1635438283867,0.25268555,-1.1358032,0.3258667,20.265625,2.734375,4.765625
1635438283924,0.064208984,-1.0371704,0.14227295,27.46875,-7.5625,15.015625
1635438283942,0.044921875,-1.065979,0.08905029,23.96875,-2.25,15.671875
1635438283999,0.18774414,-0.98760986,0.070007324,22.765625,-11.703125,16.78125
1635438284036,0.14355469,-0.9819946,-0.013977051,26.9375,-9.0,16.8125
1635438284092,0.29882812,-0.96221924,-0.10601807,23.90625,-4.796875,18.015625
1635438284112,0.28125,-0.9859009,0.004333496,22.8125,-3.40625,17.28125
1635438284150,0.16381836,-0.97784424,0.015075684,21.71875,5.125,21.1875
1635438284186,0.22241211,-0.9981079,-0.11212158,20.796875,11.296875,24.53125
1635438284224,0.29003906,-0.9590454,-0.12432861,12.90625,11.25,17.96875
1635438284262,0.28564453,-0.9714966,-0.090148926,5.953125,14.8125,12.5625
1635438284300,0.3227539,-0.97735596,-0.105529785,2.6875,11.625,9.703125
1635438284337,0.3996582,-0.9644165,-0.09698486,-4.125,6.296875,9.359375
1635438284393,0.33276367,-0.9397583,-0.07965088,-8.671875,2.546875,5.796875
1635438284431,0.3479004,-0.9614868,-0.12652588,-12.578125,4.609375,2.234375
1635438284469,0.30688477,-0.9483032,-0.1026001,-17.90625,8.0625,-0.265625
1635438284506,0.35107422,-0.9336548,-0.07647705,-20.0625,9.8125,-3.9375
1635438284543,0.34692383,-0.92852783,0.005554199,-22.828125,17.578125,-5.09375
1635438284582,0.29760742,-0.8904419,-0.022521973,-21.328125,18.234375,-5.078125
1635438284618,0.34301758,-0.90582275,-0.0017700195,-18.390625,15.046875,-6.71875
1635438284656,0.27954102,-0.9036255,0.042907715,-19.046875,22.890625,-8.0625
1635438284693,0.2939453,-0.9434204,0.023376465,-18.0,19.34375,-9.015625
1635438284731,0.31445312,-0.9458618,0.10638428,-16.203125,21.875,-9.328125
1635438284769,0.30126953,-0.9282837,0.10809326,-15.0625,19.671875,-6.53125
1635438284825,0.29003906,-0.9404907,0.1383667,-12.625,16.140625,-5.140625
1635438284862,0.26123047,-0.9126587,0.1539917,-6.65625,12.125,-4.25
1635438284899,0.2590332,-0.91607666,0.16400146,-3.59375,10.0,-2.09375
1635438284937,0.24804688,-0.9258423,0.17962646,-1.234375,6.34375,-2.578125
1635438284974,0.23828125,-0.9324341,0.19793701,0.4375,3.265625,-2.640625
1635438285012,0.22998047,-0.9522095,0.22601318,1.28125,-0.171875,-2.90625
1635438285049,0.20678711,-0.9702759,0.20233154,3.3125,-2.515625,-4.125
1635438285086,0.1796875,-0.96466064,0.22137451,1.59375,-1.984375,-6.828125
1635438285125,0.14208984,-0.95391846,0.23626709,2.15625,3.03125,-6.921875
1635438285164,0.16235352,-0.9780884,0.26019287,-0.640625,4.90625,-8.421875
1635438285218,0.14428711,-0.95269775,0.2609253,-0.140625,8.9375,-7.09375
1635438285255,0.21411133,-0.97247314,0.22772217,-2.953125,4.296875,-5.203125
1635438285293,0.118652344,-0.9356079,0.2711792,-0.921875,9.015625,-4.234375
1635438285331,0.15429688,-0.9319458,0.27581787,-1.015625,3.859375,-2.796875
1635438285368,0.111083984,-0.9072876,0.23309326,3.75,9.078125,-0.890625
1635438285406,0.104003906,-0.8887329,0.25213623,9.671875,8.6875,1.859375
1635438285444,0.14404297,-0.87384033,0.2802124,12.171875,10.078125,2.234375
1635438285481,0.15698242,-0.8201294,0.3078003,13.609375,7.328125,1.984375
1635438285518,0.15478516,-0.83966064,0.24603271,19.375,6.125,-2.84375
1635438285556,0.15844727,-0.8777466,-0.1404419,35.703125,-8.921875,1.46875
1635438285612,1.3903809,-1.5474243,-0.05230713,18.921875,-51.46875,30.84375
1635438285649,-0.6057129,-0.90704346,0.29510498,13.265625,-9.609375,-8.75
1635438285687,0.6237793,-0.97076416,-0.12384033,9.46875,0.3125,21.84375
1635438285724,0.2685547,-0.9780884,-0.117248535,22.078125,-11.3125,9.703125
1635438285763,0.17260742,-0.8777466,-0.044006348,13.515625,-3.96875,18.5625
1635438285800,0.31933594,-0.95098877,-0.1729126,22.171875,-14.71875,17.796875
1635438285836,0.27856445,-1.0508423,-0.16729736,18.890625,-15.9375,14.609375
1635438285874,0.3786621,-0.95684814,-0.18463135,15.203125,-10.578125,6.609375
1635438285913,0.4086914,-0.9866333,-0.18804932,16.265625,-6.890625,3.078125
1635438285950,0.38989258,-0.94000244,-0.15216064,13.6875,-13.421875,-0.5
1635438285987,0.3540039,-0.9014282,-0.14385986,12.65625,-16.359375,-1.375
1635438286043,0.3947754,-0.909729,-0.13336182,13.46875,-15.921875,-2.25
1635438286081,0.4128418,-0.91290283,-0.14556885,11.34375,-12.296875,-5.546875
1635438286118,0.39648438,-0.92315674,-0.14068604,10.34375,-14.65625,-8.0
1635438286156,0.36010742,-0.92437744,-0.13043213,7.609375,-12.34375,-10.8125
1635438286193,0.31982422,-0.93341064,-0.09234619,3.21875,-11.515625,-12.53125
1635438286232,0.24658203,-0.96539307,-0.11920166,-0.296875,-9.3125,-14.765625
1635438286268,0.24047852,-0.97613525,-0.109191895,-3.078125,-6.046875,-16.609375
1635438286324,0.25024414,-0.9631958,-0.09649658,-4.21875,-3.90625,-16.21875
1635438286344,0.2084961,-0.9690552,-0.069885254,-5.046875,-4.4375,-14.3125
1635438286380,0.18603516,-0.9209595,-0.101135254,-6.765625,-9.125,-13.703125
1635438286437,0.16723633,-0.91412354,-0.039855957,-5.703125,0.109375,-14.1875
1635438286475,0.19189453,-0.95977783,-0.035949707,-5.0,12.78125,-13.234375
1635438286513,0.14160156,-0.97662354,-0.043273926,-7.765625,2.703125,-12.46875
1635438286550,0.13916016,-0.9846802,-0.010314941,-9.21875,0.203125,-11.015625
1635438286587,0.111328125,-0.99957275,0.0045776367,-10.53125,-0.390625,-7.828125
1635438286624,0.0793457,-0.92559814,0.062683105,-14.375,1.265625,-4.59375
1635438286662,0.0925293,-1.0222778,0.06072998,-14.484375,-9.03125,-2.34375
1635438286699,0.21801758,-1.1130981,0.08270264,-12.65625,-15.90625,2.078125
1635438286737,0.103027344,-1.0535278,0.09442139,-12.625,6.109375,1.4375
1635438286775,0.2097168,-0.8386841,0.101989746,-9.453125,9.03125,6.984375
1635438286831,0.1394043,-0.9522095,0.16741943,-5.75,0.71875,6.0
1635438286868,0.21484375,-0.9368286,0.11126709,0.53125,8.734375,1.5
1635438286905,0.171875,-0.942688,0.2020874,-2.65625,11.875,1.59375
1635438286943,0.1772461,-0.9229126,0.1149292,-3.109375,12.25,1.65625
1635438286981,0.16796875,-0.9319458,0.07928467,-1.421875,19.5,-1.5625
1635438287019,0.24194336,-1.0147095,0.13226318,-0.890625,20.3125,-4.296875
1635438287054,0.2536621,-0.9885864,0.19744873,0.53125,24.15625,-5.609375
1635438287093,0.16381836,-1.0056763,0.16912842,1.625,21.296875,-6.15625
1635438287131,0.18481445,-0.9649048,0.16082764,-0.4375,23.78125,-4.6875
1635438287168,0.20166016,-0.97052,0.152771,-2.234375,22.140625,-1.09375
1635438287206,0.12402344,-1.0178833,0.14788818,-1.578125,25.4375,3.5625
1635438287262,0.14916992,-0.98028564,0.113464355,-5.71875,23.765625,4.921875
1635438287301,0.20043945,-0.9439087,0.14666748,-2.671875,22.828125,3.15625
1635438287336,0.21020508,-0.93463135,0.17254639,1.140625,22.15625,1.4375
1635438287375,0.18847656,-0.94537354,0.17547607,6.15625,20.171875,0.265625
1635438287412,0.16259766,-0.93756104,0.20428467,7.046875,19.125,-0.953125
1635438287450,0.107666016,-0.9273071,0.19378662,8.40625,19.671875,-2.546875
1635438287487,0.14501953,-0.91534424,0.23577881,7.96875,19.125,-4.21875
1635438287525,0.106933594,-0.9312134,0.17523193,10.828125,19.375,-5.5625
1635438287582,0.11816406,-0.9182739,0.17938232,12.75,22.328125,-7.953125
1635438287600,0.08886719,-0.88848877,0.1696167,14.03125,21.390625,-10.140625
1635438287655,0.11987305,-0.9927368,0.19769287,14.234375,14.421875,-10.890625
1635438287693,0.44433594,-1.6375122,-0.3616333,45.359375,-14.390625,15.109375
1635438287730,0.5292969,-1.0064087,-0.45855713,26.5,-9.734375,9.875
1635438287769,-0.52905273,-1.2280884,0.035339355,9.84375,30.609375,-5.78125
1635438287806,0.5515137,-0.8743286,-0.19171143,-2.859375,21.953125,8.328125
1635438287843,0.26489258,-0.8657837,-0.33648682,1.125,16.0625,-2.640625
1635438287881,0.19726562,-0.8093872,-0.13873291,-4.8125,4.53125,-3.890625
1635438287937,0.28393555,-0.91851807,-0.24517822,7.796875,3.828125,-5.390625
1635438287956,0.20239258,-0.90509033,-0.2444458,5.8125,-0.65625,-5.734375
1635438287993,0.10229492,-0.92022705,-0.19293213,5.765625,-4.34375,-6.984375
1635438288049,0.10864258,-0.93756104,-0.27618408,7.015625,1.1875,-5.96875
1635438288087,0.1694336,-0.9529419,-0.23077393,4.03125,-0.265625,-6.34375
1635438288125,0.1616211,-0.9414673,-0.20489502,3.09375,1.671875,-5.59375
1635438288163,0.12915039,-0.97052,-0.22979736,2.84375,4.265625,-5.90625
1635438288200,0.15917969,-0.972229,-0.24517822,3.96875,-1.234375,-6.65625
1635438288236,0.14819336,-0.96588135,-0.20904541,2.53125,0.203125,-6.96875
1635438288275,0.13696289,-0.9710083,-0.20391846,1.5,-1.140625,-7.0
1635438288312,0.12060547,-0.9612427,-0.20050049,1.90625,-5.3125,-6.421875
1635438288349,0.12036133,-0.9793091,-0.17926025,1.53125,-8.5,-6.65625
1635438288386,0.12768555,-0.9627075,-0.15777588,2.03125,-12.84375,-6.484375
1635438288425,0.107421875,-0.97125244,-0.16339111,2.046875,-15.953125,-7.375
1635438288481,0.078125,-0.97784424,-0.16217041,3.84375,-17.109375,-7.859375
1635438288519,0.060791016,-0.9807739,-0.15435791,0.703125,-18.375,-9.515625
1635438288556,0.053710938,-1.0134888,-0.1585083,-0.984375,-18.0625,-10.078125
1635438288594,0.06201172,-0.9981079,-0.14068604,-0.6875,-17.703125,-9.90625
1635438288631,0.04736328,-1.0020142,-0.12677002,-1.1875,-19.6875,-9.34375
1635438288669,0.04663086,-1.0025024,-0.11968994,-1.375,-21.0,-8.734375
1635438288706,0.016113281,-1.005188,-0.1182251,-3.140625,-19.03125,-8.203125
1635438288743,0.010498047,-1.0005493,-0.09307861,-2.84375,-20.046875,-6.78125
1635438288780,0.009277344,-0.9871216,-0.0713501,-2.125,-20.015625,-5.109375
1635438288819,0.011962891,-0.9793091,-0.062072754,-1.578125,-20.671875,-3.546875
1635438288874,-0.009033203,-0.97979736,-0.04425049,-1.6875,-20.34375,-2.984375
1635438288911,-0.03100586,-0.99053955,-0.037902832,-2.1875,-18.53125,-2.28125
1635438288950,-0.032470703,-1.0037231,-0.010803223,-3.140625,-15.515625,-2.015625
1635438288987,-0.049560547,-0.9924927,0.02532959,-3.6875,-13.25,-2.09375
1635438289044,-0.041503906,-1.0088501,0.0446167,-4.234375,-10.171875,-1.09375
1635438289062,-0.05834961,-0.989563,0.06390381,-4.171875,-7.875,-0.359375
1635438289099,-0.05444336,-1.0093384,0.0680542,-2.703125,-4.5,1.8125
1635438289136,-0.028320312,-1.0044556,0.10296631,1.796875,-7.0625,2.0625
1635438289175,-0.13208008,-0.9819946,0.13739014,0.75,-0.1875,3.796875
1635438289212,-0.046875,-0.99298096,0.1305542,4.0625,-0.703125,2.875
1635438289268,-0.0021972656,-0.86724854,0.18621826,0.234375,-1.15625,5.34375
1635438289309,0.034423828,-0.82281494,0.14251709,3.109375,-1.78125,12.1875
1635438289343,0.05883789,-0.7554321,0.18182373,3.078125,-7.125,16.265625
1635438289381,0.09277344,-0.7227173,0.13665771,-4.890625,-12.828125,21.421875
1635438289418,0.04736328,-0.8345337,0.17596436,1.4375,-17.421875,21.046875
1635438289456,0.06762695,-1.1358032,0.15032959,4.921875,-22.4375,22.765625
1635438289493,0.22216797,-2.0,-0.06402588,-2.765625,-15.203125,8.78125
1635438289530,0.8388672,-1.1863403,-0.2571411,29.390625,40.90625,0.046875
1635438289568,-0.09692383,-1.28302,-0.38043213,-16.75,-88.546875,19.15625
1635438289606,0.5908203,-1.1182251,-0.2107544,-1.890625,5.484375,-10.390625
1635438289642,0.24365234,-0.72247314,-0.25738525,0.46875,-38.609375,0.734375
1635438289699,0.20751953,-0.9326782,-0.057434082,-11.453125,-26.515625,-1.625
1635438289737,0.18432617,-0.756897,-0.019592285,-10.5,-21.203125,-6.796875
1635438289774,0.20239258,-0.8621216,-0.101867676,-7.328125,-19.46875,-7.765625
1635438289812,0.15332031,-0.9277954,-0.046447754,-3.28125,-2.15625,-13.515625
1635438289850,0.17626953,-0.9043579,0.018005371,-10.421875,4.640625,-11.34375
1635438289887,0.1850586,-0.9404907,0.041931152,-12.546875,8.578125,-10.53125
1635438289924,0.15332031,-0.91290283,0.020690918,-11.421875,15.390625,-8.703125
1635438289962,0.140625,-0.9421997,0.011169434,-9.390625,21.40625,-7.65625
1635438289999,0.099609375,-0.9324341,0.0446167,-10.75,28.21875,-8.828125
1635438290037,0.13549805,-0.9102173,0.035583496,-10.890625,34.375,-5.515625
1635438290097,0.17285156,-0.9734497,0.062438965,-8.625,33.984375,-4.734375
1635438290131,0.16186523,-0.9800415,0.0758667,-5.203125,40.796875,-4.421875
1635438290168,0.19213867,-0.99420166,0.08123779,-6.625,36.15625,-3.25
1635438290206,0.24267578,-1.0706177,0.17474365,-5.03125,30.0625,-4.484375
1635438290243,0.10913086,-1.0427856,0.10638428,-2.15625,36.03125,-3.828125
1635438290281,0.10083008,-1.0256958,0.06585693,-1.25,34.71875,-3.734375
1635438290319,0.14648438,-1.0117798,0.109558105,-1.609375,32.96875,-4.796875
1635438290356,0.16333008,-1.0073853,0.15985107,-5.265625,37.828125,-4.5
1635438290394,0.11621094,-0.9805298,0.15350342,-6.96875,37.390625,-3.703125
1635438290526,0.099121094,-0.9795532,0.18670654,-6.171875,36.6875,-3.109375
1635438290529,0.10180664,-0.9873657,0.18035889,-7.578125,34.4375,-3.546875
1635438290534,0.067871094,-0.9529419,0.20721436,-9.015625,37.21875,-3.453125
1635438290562,0.07373047,-0.9771118,0.20892334,-7.375,33.359375,-2.5
1635438290599,0.052001953,-0.9651489,0.22283936,-5.84375,30.6875,-3.765625
1635438290637,0.053710938,-0.9619751,0.2255249,-6.03125,30.328125,-2.953125
1635438290674,0.07299805,-0.95758057,0.22991943,-1.6875,27.4375,-1.75
1635438290712,0.071777344,-0.9429321,0.23699951,0.125,25.984375,-1.171875
1635438290750,0.053955078,-0.9492798,0.23577881,3.625,23.96875,-1.078125
1635438290787,0.05493164,-0.9324341,0.24725342,5.375,22.28125,-1.234375
1635438290825,0.02709961,-0.928772,0.25042725,7.75,22.515625,-1.703125
1635438290862,-0.041015625,-0.9273071,0.23309326,7.71875,24.203125,-3.234375
1635438290918,-0.013671875,-0.91192627,0.23797607,9.796875,22.859375,-2.375
1635438290955,0.032470703,-0.9043579,0.2399292,8.640625,22.765625,-3.234375
1635438290993,0.009765625,-0.8862915,0.26800537,8.140625,21.875,-6.15625
1635438291031,-0.015136719,-1.1524048,0.031921387,15.234375,9.84375,-1.96875
1635438291069,0.29589844,-1.3762817,0.046569824,25.765625,3.125,1.46875
1635438291106,0.32006836,-1.3052368,-0.12921143,23.40625,-7.34375,5.65625
1635438291144,-0.16625977,-1.086731,-0.09063721,8.640625,34.546875,-3.609375
1635438291181,0.22460938,-1.1030884,-0.045959473,11.140625,40.796875,-2.390625
1635438291218,0.30859375,-0.9795532,-0.21051025,7.5,26.515625,-1.890625
1635438291256,0.18066406,-0.9417114,-0.20123291,0.34375,23.90625,-1.546875
1635438291312,0.17333984,-0.9492798,-0.15924072,0.40625,18.5,-2.140625
1635438291349,0.1875,-0.9522095,-0.20953369,-0.6875,17.0,-0.1875
1635438291387,0.24975586,-0.96295166,-0.11505127,-3.546875,7.53125,-2.828125
1635438291425,0.15698242,-0.9692993,-0.101135254,-3.484375,10.0,-3.890625
1635438291464,0.20605469,-0.9673462,-0.15924072,-3.203125,5.65625,-2.703125
1635438291499,0.19458008,-1.0317993,-0.1453247,-3.296875,-5.84375,-6.390625
1635438291537,0.20410156,-1.0244751,-0.12774658,-7.015625,-11.53125,-6.15625
1635438291575,0.115478516,-1.0090942,-0.108947754,-7.765625,-21.90625,-9.078125
1635438291612,0.080566406,-0.989563,-0.07550049,-7.390625,-24.84375,-10.03125
1635438291650,0.09399414,-0.9944458,-0.032043457,-8.296875,-28.4375,-10.546875
1635438291705,0.08325195,-0.99884033,-0.019348145,-9.453125,-30.265625,-12.109375
1635438291744,0.041015625,-0.96295166,0.017028809,-11.203125,-31.015625,-10.234375
1635438291781,0.013427734,-0.9898071,0.062438965,-9.1875,-30.703125,-8.109375
1635438291818,-0.008544922,-0.9776001,0.050476074,-8.765625,-32.328125,-5.71875
1635438291855,-0.04248047,-0.9783325,0.10809326,-9.765625,-32.140625,-5.109375
1635438291894,-0.06616211,-1.0222778,0.10662842,-9.859375,-33.0,-4.203125
1635438291931,-0.07080078,-0.9758911,0.152771,-8.640625,-31.734375,-3.546875
1635438291969,-0.107910156,-0.9902954,0.19720459,-6.40625,-29.78125,-2.953125
1635438292006,-0.123291016,-0.98321533,0.19134521,-6.328125,-27.328125,-1.34375
1635438292045,-0.14208984,-0.9734497,0.23504639,-5.046875,-23.625,-0.453125
1635438292080,-0.14208984,-0.97442627,0.25726318,-3.328125,-20.265625,1.109375
1635438292137,-0.14111328,-0.9529419,0.26409912,-1.4375,-17.890625,3.453125
1635438292174,-0.15551758,-0.95684814,0.2675171,0.140625,-15.515625,5.515625
1635438292212,-0.083984375,-0.9522095,0.2741089,2.328125,-18.28125,8.578125
1635438292249,-0.119384766,-0.9209595,0.31463623,6.953125,-20.765625,11.296875
1635438292287,-0.16113281,-0.9319458,0.28656006,10.34375,-20.984375,13.109375
1635438292330,-0.23999023,-0.92266846,0.34613037,12.765625,-19.859375,13.171875
1635438292361,-0.24536133,-0.9151001,0.27191162,9.65625,-10.6875,15.3125
1635438292400,-0.27954102,-0.9031372,0.2501831,9.96875,3.5625,14.46875
1635438292438,-0.2109375,-0.88726807,0.27923584,8.703125,11.0,17.609375
1635438292474,-0.17480469,-0.82403564,0.18695068,10.421875,18.8125,20.484375
1635438292530,-0.09301758,-0.78619385,0.16473389,13.515625,12.890625,22.953125
1635438292568,-0.025146484,-0.8279419,0.2345581,19.484375,10.625,28.1875
1635438292606,0.32714844,-1.3762817,-0.25787354,1.15625,-22.1875,34.5
1635438292643,0.8364258,-1.6868286,-0.057678223,28.78125,25.15625,4.0625
1635438292681,0.66918945,-1.34552,-0.21124268,14.703125,4.734375,13.84375
1635438292718,0.57910156,-1.2634888,-0.13092041,-7.328125,-9.6875,4.640625
1635438292756,0.5283203,-0.98687744,-0.10455322,-0.109375,13.25,-1.8125
1635438292793,0.35205078,-0.8579712,-0.12945557,0.6875,7.328125,-2.90625
1635438292831,0.33691406,-0.79229736,-0.0134887695,-11.234375,10.6875,-2.921875
1635438292869,0.3244629,-0.73565674,0.018737793,-14.578125,2.0625,-4.28125
1635438292924,0.24584961,-0.7942505,-0.045715332,-12.5625,9.578125,-8.171875
1635438292962,0.28051758,-0.8477173,-0.023498535,-12.234375,18.0625,-12.671875
1635438293000,0.2590332,-0.9109497,0.035339355,-11.25,18.671875,-14.453125
1635438293038,0.23095703,-0.9841919,0.046081543,-9.875,22.15625,-15.71875
1635438293073,0.15161133,-0.9697876,0.058044434,-6.71875,27.328125,-15.796875
1635438293112,0.13647461,-0.9727173,0.066101074,-8.609375,29.984375,-13.96875
1635438293150,0.16430664,-0.96539307,0.081970215,-11.265625,27.1875,-12.59375
1635438293187,0.18481445,-0.9385376,0.10809326,-9.796875,25.1875,-11.515625
1635438293224,0.19995117,-0.9915161,0.15350342,-6.21875,19.90625,-10.78125
1635438293263,0.16137695,-0.9727173,0.19354248,-6.90625,11.265625,-8.9375
1635438293299,0.099853516,-0.9751587,0.19915771,-4.328125,7.9375,-5.5
1635438293355,0.10498047,-1.0344849,0.15057373,-4.015625,3.578125,-1.671875
1635438293393,0.122558594,-0.9534302,0.15203857,-4.234375,5.5625,1.703125
1635438293431,0.14868164,-0.975647,0.17913818,-0.65625,-1.515625,2.859375
1635438293469,0.15625,-0.95758057,0.16888428,4.484375,-4.734375,4.453125
1635438293506,0.1586914,-0.96954346,0.19110107,4.1875,-5.71875,5.796875
1635438293543,0.15551758,-0.99176025,0.1984253,4.671875,-8.921875,6.765625
1635438293581,0.14086914,-0.9961548,0.19354248,6.15625,-8.59375,6.5625
1635438293618,0.17871094,-0.9807739,0.20501709,5.53125,-11.25,8.0625
1635438293656,0.15112305,-0.97442627,0.22479248,4.484375,-11.390625,8.40625
1635438293693,0.15283203,-0.9585571,0.22235107,7.71875,-14.078125,8.359375
1635438293750,0.16992188,-0.97076416,0.17767334,12.5625,-15.15625,8.9375
1635438293787,0.22851562,-0.9573364,0.1564331,14.625,-18.828125,9.5
1635438293825,0.19360352,-0.9475708,0.19134521,14.71875,-15.78125,8.484375
1635438293880,0.22265625,-0.9824829,0.21673584,15.703125,-19.71875,8.65625
1635438293899,0.18554688,-0.9734497,0.19403076,13.6875,-23.1875,7.03125
1635438293936,0.2331543,-0.97052,0.17889404,15.796875,-21.796875,6.203125
1635438293974,0.24511719,-0.89923096,0.22772217,14.4375,-17.671875,4.46875
1635438294012,0.24707031,-0.9146118,0.19720459,13.859375,-19.484375,3.453125
1635438294050,0.2355957,-0.9104614,0.20379639,15.84375,-14.953125,2.3125
1635438294087,0.20336914,-0.8682251,0.14276123,18.78125,-8.53125,1.984375
1635438294143,0.24536133,-0.84991455,0.14251709,22.65625,-3.484375,0.578125
1635438294181,0.27539062,-0.75445557,0.15374756,22.625,-5.953125,3.4375
1635438294238,0.33032227,-0.8147583,0.28753662,23.03125,-7.375,-0.34375
1635438294255,0.1628418,-0.92266846,0.28656006,24.125,-6.9375,-7.265625
1635438294293,0.31079102,-1.0244751,0.32733154,21.46875,-16.71875,-5.859375
1635438294333,0.18823242,-1.0869751,0.16326904,33.328125,-12.5,-4.46875
1635438294368,0.28295898,-1.3511353,0.0021362305,31.015625,-19.40625,-5.109375
1635438294406,1.5305176,-2.0,-1.2542114,6.265625,-63.390625,-2.875
1635438294443,-0.36083984,-1.576477,-0.3550415,-17.015625,42.59375,-41.25
1635438294481,-0.05908203,-0.8045044,-0.36236572,3.578125,6.8125,-8.390625
1635438294518,0.2475586,-0.5161743,-0.28375244,-19.328125,19.75,-23.421875
1635438294574,0.09643555,-0.6338501,-0.17901611,-12.765625,2.546875,-22.9375
1635438294612,0.08520508,-0.63848877,-0.2781372,-3.046875,-17.953125,-17.015625
1635438294651,0.015380859,-0.8430786,-0.31500244,0.21875,-18.25,-11.125
1635438294686,-0.04296875,-1.1121216,-0.30010986,-6.203125,-20.734375,-13.015625
1635438294742,0.01928711,-0.92071533,-0.14019775,-6.53125,-10.140625,-8.296875
1635438294762,0.0390625,-1.03302,-0.13311768,-3.953125,-12.625,-6.78125
1635438294800,0.0146484375,-0.9397583,-0.11920166,-4.203125,-15.875,-7.921875
1635438294837,-0.12036133,-0.95635986,-0.07867432,-7.078125,-16.1875,-9.953125
1635438294874,-0.048095703,-0.9944458,-0.0569458,-9.171875,-18.984375,-6.6875
1635438294912,-0.052978516,-1.0134888,-0.04937744,-12.53125,-11.734375,-5.296875
1635438294968,-0.055419922,-1.0308228,-0.06866455,-14.78125,-8.40625,-3.9375
1635438295006,0.033935547,-1.0083618,-0.028137207,-11.859375,-8.203125,-0.5
1635438295043,-0.018066406,-0.9758911,0.010681152,-9.40625,-4.65625,2.546875
1635438295080,-0.030761719,-0.93218994,0.005065918,-6.9375,0.453125,3.734375
1635438295119,0.037109375,-1.0540161,0.1317749,-5.546875,-9.859375,4.84375
1635438295155,0.053466797,-1.0059204,0.06903076,-4.1875,-5.703125,7.9375
1635438295194,0.011962891,-0.9619751,0.07342529,1.8125,-9.71875,6.78125
1635438295231,-0.024414062,-0.9973755,0.06121826,5.328125,-10.5625,5.0625
1635438295269,0.01977539,-0.9949341,0.02557373,8.25,-5.0625,4.703125
1635438295305,-0.019042969,-1.00177,0.051696777,10.421875,-2.09375,4.5625
1635438295399,-0.020507812,-1.0342407,0.093933105,13.5625,-2.859375,4.328125
1635438295402,-0.018798828,-1.005188,0.09906006,13.34375,1.578125,5.578125
1635438295438,0.020996094,-0.99102783,0.03729248,15.046875,-3.765625,7.828125
1635438295474,-0.011230469,-0.97491455,-0.003967285,17.328125,-2.625,8.640625
1635438295512,0.022949219,-0.9619751,-0.018859863,17.640625,-5.921875,8.046875
1635438295550,-0.016357422,-0.9702759,-0.05206299,17.375,-3.5,7.484375
1635438295587,-0.020996094,-0.98101807,-0.0960083,16.3125,-0.140625,8.453125
1635438295624,0.03173828,-0.944397,-0.11260986,13.015625,1.34375,6.71875
1635438295662,-0.01171875,-0.940979,-0.11383057,10.109375,11.265625,6.234375
1635438295701,-0.014160156,-0.9710083,-0.19122314,7.6875,19.484375,2.796875
1635438295737,-0.036621094,-1.0991821,-0.17388916,8.046875,28.421875,0.984375
1635438295793,0.020019531,-1.1817017,-0.1741333,-1.609375,28.578125,-0.5
1635438295832,-0.1003418,-1.1890259,-0.08868408,-4.3125,31.0,-1.875
1635438295868,-0.1574707,-1.2036743,-0.0569458,-5.828125,45.5625,2.75
1635438295906,-0.08300781,-1.2105103,-0.1873169,-12.21875,35.390625,1.671875
1635438295942,-0.1730957,-1.2559204,-0.12554932,-14.9375,37.1875,0.625
1635438295980,-0.075683594,-1.1275024,-0.09210205,-16.484375,26.53125,1.5
1635438296018,-0.011962891,-0.8225708,-0.07940674,-15.71875,29.609375,-5.640625
1635438296055,-0.19091797,-0.4631958,0.18719482,-24.53125,45.21875,-12.109375
1635438296092,-0.13623047,-0.41290283,-0.010803223,-31.15625,33.1875,-9.46875
1635438296131,0.21508789,-0.26055908,-0.06915283,-37.171875,3.578125,-7.359375
1635438296187,0.21875,-1.1621704,0.21600342,-54.703125,-20.25,-16.140625
1635438296224,0.9250488,-2.0,-0.18927002,26.625,27.4375,-15.25
1635438296262,0.41015625,-1.2546997,0.17816162,-0.875,23.75,-0.921875
1635438296299,-0.019042969,-1.647522,-0.1675415,-0.84375,7.203125,4.859375
1635438296336,0.35668945,-1.2717896,0.035339355,-1.171875,44.421875,0.5625
1635438296374,0.018798828,-0.9314575,-0.12261963,-1.15625,37.640625,6.390625
1635438296412,0.016601562,-0.8106079,0.026794434,-1.40625,39.328125,4.265625
1635438296449,0.21044922,-0.692688,0.15032959,-5.59375,34.59375,-1.015625
1635438296488,-0.06518555,-0.80596924,0.13201904,-7.171875,39.453125,-11.546875
1635438296524,0.19897461,-1.0745239,0.16595459,-3.203125,39.546875,-4.765625
1635438296581,0.03149414,-1.0457153,0.08905029,-2.078125,13.578125,5.90625
1635438296618,0.21557617,-0.881897,-0.06866455,6.65625,-0.03125,1.09375
1635438296656,0.103271484,-1.0896606,0.28656006,-6.671875,6.28125,8.359375
1635438296693,0.13452148,-0.85479736,-0.030334473,2.453125,-4.03125,11.703125
1635438296731,0.016357422,-1.0169067,0.105163574,5.875,8.734375,10.765625
1635438296768,0.09375,-0.9378052,0.086364746,6.28125,2.8125,7.75
1635438296807,0.16479492,-1.0007935,0.081970215,5.390625,4.203125,8.765625
1635438296843,0.095214844,-1.0064087,0.10296631,4.890625,3.421875,6.90625
1635438296880,0.0793457,-1.0132446,0.12225342,2.71875,2.5,5.953125
1635438296918,0.16796875,-0.9915161,0.10223389,1.859375,0.15625,5.921875
1635438296974,0.19946289,-0.95684814,0.12030029,0.796875,-3.5625,6.15625
1635438297012,0.21850586,-0.944397,0.13519287,1.734375,-8.015625,6.53125
1635438297049,0.24707031,-0.92437744,0.12200928,3.78125,-13.71875,7.8125
1635438297087,0.2253418,-0.96417236,0.14227295,6.21875,-18.6875,5.5625
1635438297124,0.22827148,-1.02594,0.15814209,9.34375,-24.125,6.296875
1635438297162,0.17749023,-1.034729,0.15594482,7.546875,-21.828125,6.328125
1635438297200,0.1862793,-0.97979736,0.109313965,7.359375,-24.40625,9.1875
1635438297237,0.20263672,-0.9595337,0.17694092,8.0,-22.828125,7.828125
1635438297275,0.18139648,-0.9390259,0.18206787,8.859375,-22.453125,6.828125
1635438297312,0.18041992,-0.95758057,0.23480225,9.5625,-18.765625,3.453125
1635438297350,0.15991211,-0.9385376,0.2296753,9.28125,-14.453125,1.609375
1635438297406,0.17163086,-0.94122314,0.26849365,7.734375,-12.75,0.0625
1635438297443,0.1628418,-0.9109497,0.2748413,7.703125,-13.328125,-2.140625
1635438297481,0.17260742,-0.8557739,0.25628662,11.25,-12.421875,-1.734375
1635438297518,0.15112305,-0.85357666,0.25360107,13.984375,-11.546875,-3.5625
1635438297555,0.13623047,-0.81451416,0.1930542,17.3125,-8.46875,-3.28125
1635438297593,0.21655273,-0.8735962,0.25701904,15.234375,-9.75,-4.125
1635438297630,0.1665039,-0.91607666,0.25579834,17.65625,-9.03125,-5.40625
1635438297668,0.13500977,-0.9180298,0.23895264,20.421875,-5.265625,-4.5625
1635438297706,0.31567383,-1.1148071,0.26141357,18.078125,-14.0,-4.328125
1635438297743,0.2800293,-1.3027954,0.031921387,27.90625,-20.0625,-6.125
1635438297799,0.9069824,-2.0,-0.47320557,38.390625,-66.640625,4.375
1635438297837,-0.51049805,-1.31427,-0.411438,-0.46875,47.65625,-19.28125
1635438297894,0.20263672,-0.92803955,-0.20904541,-1.21875,11.640625,-0.125
1635438297912,0.4128418,-0.7449341,-0.28082275,3.34375,12.203125,-7.4375
1635438297950,0.064208984,-0.6382446,-0.25689697,6.40625,20.34375,-10.65625
1635438297987,0.16699219,-0.7334595,-0.24102783,-1.71875,-7.078125,-11.171875
1635438298025,0.18237305,-0.8167114,-0.3032837,7.03125,-6.625,-5.890625
1635438298061,0.14672852,-0.93707275,-0.30889893,2.484375,-22.390625,-8.21875
1635438298099,0.10253906,-0.97662354,-0.2510376,3.671875,-17.46875,-8.21875
1635438298136,0.1105957,-1.0046997,-0.21539307,0.6875,-16.375,-8.71875
1635438298193,0.06567383,-0.98150635,-0.121154785,-3.078125,-16.59375,-8.65625
1635438298231,0.016357422,-0.99591064,-0.12921143,-3.90625,-14.140625,-8.78125
1635438298268,0.0107421875,-0.9866333,-0.12945557,-8.234375,-11.421875,-9.96875
1635438298305,0.001953125,-0.9949341,-0.074523926,-13.21875,-7.0625,-10.796875
1635438298343,0.017333984,-0.9834595,-0.043518066,-15.1875,-1.734375,-9.765625
1635438298380,0.01586914,-0.9817505,-0.022766113,-14.890625,-0.921875,-9.109375
1635438298418,-0.02758789,-1.0078735,0.0033569336,-12.328125,0.375,-8.546875
1635438298455,-0.009033203,-1.0083618,0.016784668,-10.046875,3.046875,-6.484375
1635438298494,-0.026123047,-0.9961548,0.03289795,-9.53125,1.65625,-5.515625
1635438298531,-0.014160156,-0.9956665,0.05731201,-7.171875,2.1875,-3.390625
1635438298568,-0.021728516,-0.9819946,0.07684326,-6.609375,0.625,-3.125
1635438298624,-0.007080078,-1.0064087,0.0692749,-3.484375,-2.84375,-3.78125
1635438298662,-0.033203125,-0.98931885,0.089782715,-6.375,-0.8125,-3.234375
1635438298700,0.008544922,-0.9963989,0.058532715,-2.5,-4.203125,-3.859375
1635438298737,-0.0031738281,-1.005188,0.039978027,1.15625,-6.71875,-4.546875
1635438298775,-0.03173828,-0.99835205,0.039978027,2.71875,-7.59375,-4.90625
1635438298812,-0.095458984,-1.0315552,0.07342529,1.859375,-7.671875,-7.46875
1635438298850,-0.12670898,-1.0132446,0.11444092,1.234375,-6.734375,-6.15625
1635438298887,-0.13085938,-1.0315552,0.09075928,1.28125,-4.28125,-5.515625
1635438298924,-0.15917969,-0.9546509,0.09222412,4.734375,0.640625,-4.28125
1635438298961,-0.14892578,-1.0042114,0.078552246,4.515625,5.125,-2.546875
1635438299018,-0.13696289,-0.96295166,0.05340576,4.6875,8.84375,-2.25
1635438299054,-0.18359375,-1.0027466,0.06561279,5.0625,11.71875,-1.375
1635438299093,-0.16894531,-1.0271606,0.06488037,4.953125,15.109375,-1.578125
1635438299131,-0.1772461,-1.0283813,0.081970215,3.703125,15.796875,-1.15625
1635438299168,-0.19311523,-1.0178833,0.07318115,4.296875,19.359375,-0.765625
1635438299205,-0.19702148,-1.0134888,0.06976318,2.859375,20.84375,0.21875
1635438299243,-0.17553711,-1.005188,0.03753662,3.640625,20.859375,1.59375
1635438299280,-0.1965332,-0.9573364,0.070007324,4.125,22.203125,2.828125
1635438299318,-0.1977539,-0.93292236,0.047790527,3.890625,22.9375,4.859375
1635438299355,-0.17138672,-0.8982544,0.010192871,4.75,22.890625,6.28125
1635438299412,-0.17895508,-0.8430786,0.04901123,6.59375,21.40625,7.8125
1635438299449,-0.2253418,-0.8530884,0.045837402,5.953125,22.890625,8.734375
1635438299487,-0.3413086,-1.022522,0.12298584,4.40625,23.5625,7.546875
1635438299524,-0.47607422,-1.0108032,0.30389404,-7.75,26.890625,6.9375
1635438299562,-0.39770508,-1.1018677,0.09906006,-11.375,29.625,9.5
1635438299600,-0.22094727,-1.062561,0.105651855,-9.078125,25.46875,6.4375
1635438299637,-0.079833984,-1.1338501,0.09442139,-1.4375,9.453125,8.03125
1635438299674,0.31591797,-1.281311,0.010925293,0.421875,40.78125,8.265625
1635438299713,0.8027344,-1.2932739,0.11419678,3.125,18.8125,-10.828125
1635438299750,0.46411133,-1.203186,-0.039855957,8.65625,-16.859375,15.84375
1635438299787,0.3371582,-1.0745239,0.015075684,1.609375,-20.46875,13.046875
1635438299843,0.21264648,-0.7793579,0.09197998,-1.5625,11.328125,11.515625
1635438299881,0.115478516,-0.78863525,0.036071777,3.71875,11.359375,7.875
1635438299919,0.1352539,-0.8106079,0.109558105,2.625,24.90625,6.234375
1635438299955,0.22558594,-0.8513794,0.13934326,-2.734375,31.265625,3.375
1635438299993,0.25610352,-1.0044556,0.13128662,-4.390625,16.5625,2.03125
1635438300031,0.114990234,-1.0044556,0.050964355,-5.515625,22.90625,-1.78125
1635438300068,0.16333008,-0.9866333,0.046325684,-9.0,28.234375,-3.65625
1635438300124,0.22729492,-0.94976807,0.117370605,-11.046875,20.71875,-3.90625
1635438300143,0.22998047,-0.97320557,0.1293335,-12.34375,14.9375,-4.875
1635438300181,0.10058594,-0.94073486,0.109069824,-0.046875,15.84375,-5.78125
1635438300237,0.107666016,-0.9414673,0.046081543,0.671875,15.078125,-4.25
1635438300274,0.17797852,-1.0203247,0.097595215,-2.890625,7.796875,-1.515625
1635438300312,0.22363281,-0.9812622,0.1251831,-4.390625,3.40625,3.828125
1635438300349,0.17456055,-1.0215454,0.1293335,-2.140625,5.09375,5.265625
1635438300387,0.123535156,-0.954895,0.12054443,6.59375,14.140625,4.546875
1635438300424,0.15209961,-0.9463501,0.1408081,5.25,16.390625,4.640625
1635438300461,0.1706543,-0.9702759,0.14935303,5.6875,13.75,3.625
1635438300502,0.19335938,-0.9776001,0.13934326,6.21875,15.375,3.625
1635438300537,0.17675781,-1.0159302,0.13934326,7.109375,14.1875,2.5
1635438300574,0.18310547,-0.98931885,0.12640381,6.359375,14.453125,2.46875
1635438300631,0.2121582,-0.9771118,0.13494873,4.046875,9.40625,2.984375
1635438300668,0.1862793,-0.95806885,0.15496826,2.6875,9.640625,5.078125
1635438300706,0.27807617,-0.973938,0.09295654,4.84375,2.703125,6.8125
1635438300744,0.26635742,-0.9155884,0.11785889,5.609375,2.046875,9.25
1635438300782,0.30908203,-0.9168091,0.113220215,9.375,-6.46875,10.375
1635438300818,0.35620117,-0.9429321,0.18304443,10.625,-15.09375,8.125
1635438300855,0.28466797,-0.9360962,0.16864014,11.234375,-19.046875,8.421875
1635438300893,0.29736328,-0.9468384,0.14251709,11.1875,-25.703125,6.53125
1635438300931,0.29882812,-0.9507446,0.152771,16.1875,-23.90625,4.296875
1635438300970,0.31201172,-1.0032349,0.20452881,16.171875,-23.515625,1.8125
1635438301005,0.2319336,-0.97247314,0.20111084,17.6875,-23.453125,-1.359375
1635438301062,0.22607422,-0.91070557,0.20306396,17.609375,-20.65625,-2.96875
1635438301103,0.24023438,-0.88604736,0.18255615,17.46875,-26.546875,-5.3125
1635438301137,0.1628418,-0.8428345,0.20916748,20.8125,-19.578125,-8.75
1635438301193,0.21728516,-0.894104,0.17230225,21.90625,-22.734375,-11.109375
1635438301212,0.26220703,-1.0230103,0.2670288,24.390625,-22.796875,-18.75
1635438301250,0.31884766,-1.0547485,0.18914795,23.453125,-28.703125,-23.046875
1635438301287,0.091308594,-0.9985962,-0.15924072,14.734375,-31.3125,-16.078125
1635438301325,1.4208984,-1.9292603,-1.2749634,28.6875,-141.25,2.0
1635438301361,-0.4177246,-1.0408325,-0.3587036,-10.046875,34.3125,-51.21875
1635438301399,0.45239258,-0.892395,-0.07647705,-11.234375,-47.875,-18.890625
1635438301456,0.2939453,-1.0679321,-0.5828247,-7.328125,-50.78125,-27.21875
1635438301493,0.13061523,-0.8406372,-0.31695557,-4.65625,-69.171875,-30.421875
1635438301530,0.064208984,-0.645813,-0.14459229,-5.609375,-64.171875,-24.859375
1635438301568,0.20117188,-0.7703247,-0.20269775,-3.640625,-84.765625,-21.171875
1635438301605,0.16430664,-0.7424927,-0.21343994,0.46875,-101.515625,-19.625
1635438301644,-0.0026855469,-0.8833618,-0.22393799,6.609375,-105.0,-20.5
1635438301681,-0.049316406,-1.0549927,-0.2876587,6.859375,-104.265625,-15.78125
1635438301719,-0.011474609,-0.98028564,-0.25250244,11.25,-101.171875,-11.796875
1635438301756,-0.07739258,-0.9746704,-0.19415283,12.140625,-99.859375,-8.03125
1635438301793,-0.055664062,-0.9690552,-0.22149658,14.234375,-96.59375,-7.15625
1635438301849,-0.19921875,-1.0098267,-0.20489502,9.765625,-91.96875,-9.4375
1635438301887,-0.18579102,-0.9536743,-0.21759033,7.078125,-84.28125,-6.921875
1635438301924,-0.1706543,-0.9885864,-0.19976807,8.53125,-79.765625,-5.875
1635438301962,-0.1796875,-0.98565674,-0.20147705,5.9375,-74.328125,-3.28125
1635438302000,-0.17993164,-0.95758057,-0.18023682,3.265625,-64.65625,-1.640625
1635438302036,-0.17333984,-0.9529419,-0.16070557,4.09375,-57.65625,-0.0625
1635438302074,-0.17114258,-0.9780884,-0.19244385,2.875,-50.875,0.140625
1635438302112,-0.1940918,-0.9963989,-0.14215088,-0.453125,-45.328125,0.890625
1635438302150,-0.16186523,-0.9751587,-0.15704346,-1.171875,-35.65625,2.21875
1635438302189,-0.13500977,-0.9446411,-0.16021729,-1.546875,-35.046875,3.84375
1635438302225,-0.15161133,-0.92974854,-0.16949463,-3.0625,-29.203125,6.296875
1635438302280,-0.09033203,-0.88946533,-0.16778564,-4.78125,-28.9375,10.203125
1635438302317,-0.0690918,-0.86553955,-0.17340088,-2.890625,-29.328125,14.8125
1635438302355,-0.059570312,-0.7871704,-0.16558838,2.75,-30.484375,21.3125
1635438302393,-0.023925781,-0.80963135,-0.2588501,13.734375,-30.765625,26.8125
1635438302431,-0.048095703,-0.79888916,-0.29571533,18.640625,-29.75,22.296875
1635438302468,-0.068359375,-0.7737427,-0.2786255,23.90625,-30.875,16.078125
1635438302507,0.44482422,-1.3040161,-0.054748535,32.75,-55.03125,17.734375
1635438302543,0.61816406,-2.0,0.58392334,-44.890625,-19.703125,-5.453125
1635438302581,1.0019531,-1.454895,-0.5610962,23.03125,15.5625,-6.390625
1635438302618,0.049560547,-0.21807861,0.42840576,-8.734375,-110.140625,-3.984375
1635438302674,0.41992188,-1.0437622,0.09222412,1.765625,-41.90625,-1.734375
1635438302712,0.33203125,-0.37945557,-0.081848145,-0.03125,-51.0625,-9.03125
1635438302750,0.34448242,-0.58013916,0.12322998,9.78125,-67.515625,-1.171875
1635438302787,0.5090332,-0.8357544,0.019958496,10.65625,-73.890625,-0.578125
1635438302824,0.4284668,-1.0269165,-0.013244629,15.15625,-75.015625,-8.296875
1635438302862,0.32714844,-0.96173096,-0.012023926,20.421875,-85.21875,-5.703125
1635438302918,0.29077148,-0.9854126,-0.018127441,22.140625,-89.78125,-9.828125
1635438302938,0.3251953,-0.89068604,-0.0025024414,14.578125,-91.34375,-5.234375
1635438302974,0.34765625,-0.9019165,0.006286621,15.859375,-91.3125,-4.828125
1635438303125,0.30737305,-0.9146118,0.008972168,20.40625,-94.359375,-4.90625
1635438303143,0.37402344,-0.99713135,-0.01739502,23.125,-101.484375,-2.5
1635438303163,0.2919922,-0.99786377,-0.06109619,22.8125,-103.6875,-3.484375
1635438303167,0.24047852,-0.9116821,-0.0791626,24.5625,-103.125,-2.140625
1635438303199,0.30810547,-0.9324341,-0.085998535,27.625,-107.0,-1.140625
1635438303218,0.27441406,-0.9138794,-0.0569458,28.75,-102.109375,1.1875
1635438303256,0.27148438,-0.9055786,-0.07550049,29.671875,-97.328125,3.203125
1635438303293,0.11352539,-0.8677368,-0.014221191,29.734375,-76.296875,1.71875
1635438303330,0.1484375,-0.8518677,0.027526855,32.671875,-57.125,-0.296875
1635438303368,0.28735352,-0.8093872,-0.0015258789,26.546875,-47.796875,-1.65625
1635438303407,0.19189453,-0.991272,0.05609131,31.078125,-38.546875,-3.359375
1635438303443,0.1340332,-1.0064087,-0.11895752,40.453125,-26.90625,-6.078125
1635438303499,0.12670898,-1.2266235,-0.21270752,36.015625,-18.328125,-11.296875
1635438303537,0.12768555,-1.6428833,-0.34991455,30.109375,-19.15625,-9.9375
1635438303574,0.084228516,-0.7398071,0.039489746,24.765625,-35.546875,-18.65625
1635438303612,-0.1875,-1.178772,0.14764404,11.328125,-51.75,-8.59375
1635438303649,0.055664062,-0.8706665,-0.24151611,12.234375,-38.6875,-7.03125
1635438303687,-0.09838867,-0.9932251,-0.32232666,10.390625,-32.78125,-19.5625
1635438303726,-0.080322266,-0.9976196,-0.13531494,15.421875,-39.828125,-21.046875
1635438303762,-0.14282227,-1.0291138,-0.06060791,2.484375,-35.0625,-15.859375
1635438303799,0.0053710938,-0.9714966,-0.18560791,-1.25,-26.921875,-12.46875
1635438303837,0.025634766,-1.0654907,-0.11993408,-3.09375,-40.46875,-9.515625
1635438303893,-0.04663086,-1.0264282,-0.12994385,2.90625,-27.21875,-8.859375
1635438303931,0.080566406,-0.9768677,-0.12237549,0.078125,-35.09375,-6.890625
1635438303967,0.07397461,-1.0010376,-0.10333252,1.015625,-42.65625,-5.609375
1635438304007,-0.018066406,-0.99542236,-0.09429932,-0.234375,-37.78125,-5.640625
1635438304044,-0.10913086,-0.9846802,-0.08843994,-6.6875,-26.921875,-9.9375
1635438304081,-0.08935547,-0.94000244,-0.06817627,-4.609375,-11.84375,-8.625
1635438304119,0.029296875,-0.97076416,-0.08453369,-5.921875,-14.078125,-6.5
1635438304156,-0.11767578,-0.895813,-6.1035156E-5,-7.921875,-8.8125,-4.6875
1635438304193,-0.18774414,-1.2307739,-0.03643799,-2.1875,0.875,-3.65625
1635438304231,0.03881836,-0.9939575,-0.024475098,-12.984375,-4.75,-7.3125
1635438304286,-0.12011719,-1.0252075,0.14593506,-4.390625,11.328125,-3.15625
1635438304326,-0.08959961,-0.9343872,0.01727295,-3.453125,9.28125,1.375
1635438304361,-0.07714844,-0.9776001,0.015808105,-3.9375,6.953125,0.828125
1635438304399,-0.10473633,-1.0137329,0.04486084,-0.421875,5.109375,0.765625
1635438304437,-0.107421875,-0.9793091,0.058044434,-2.671875,8.609375,2.671875
1635438304474,-0.10449219,-0.98931885,0.07635498,-1.4375,9.375,4.890625
1635438304513,-0.10595703,-0.97613525,0.06951904,-0.984375,7.015625,6.0625
1635438304550,-0.1105957,-0.97735596,0.09832764,0.015625,8.171875,8.34375
1635438304587,-0.15600586,-0.95635986,0.11151123,-1.53125,11.96875,10.921875
1635438304625,-0.12231445,-0.9365845,0.089782715,-2.3125,12.59375,14.359375
1635438304662,-0.103759766,-0.96173096,0.09710693,-0.21875,13.640625,16.53125
1635438304718,-0.114990234,-0.97320557,0.10736084,0.734375,16.640625,16.984375
1635438304756,-0.041992188,-1.0125122,0.11590576,0.921875,9.8125,17.484375
1635438304794,0.08544922,-1.2310181,0.11444092,7.828125,-2.09375,21.015625
1635438304831,0.31030273,-1.5579224,0.035583496,-3.4375,12.875,12.484375
1635438304869,0.6208496,-1.1997681,0.009460449,4.484375,24.8125,-5.28125
1635438304906,0.2565918,-0.99298096,0.058288574,-15.09375,-10.375,6.90625
1635438304944,0.51416016,-0.87164307,0.0079956055,-12.03125,-25.09375,4.703125
1635438304981,0.4255371,-0.79571533,0.053894043,-11.59375,-17.203125,1.5625
1635438305019,0.28466797,-0.79693604,0.055847168,-1.203125,-14.765625,-0.6875
1635438305055,0.23730469,-0.8428345,0.1005249,3.46875,-4.84375,-3.5625
1635438305112,0.21069336,-0.95806885,0.10247803,6.109375,1.4375,-6.875
1635438305150,0.18139648,-0.93878174,0.14154053,-2.90625,17.984375,-6.078125
1635438305186,0.21264648,-0.944397,0.14276123,-13.75,25.234375,-2.46875
1635438305225,0.25854492,-0.93585205,0.16790771,-15.21875,22.921875,-2.203125
1635438305263,0.26489258,-0.90338135,0.15032959,-12.078125,24.296875,-1.421875
1635438305299,0.3112793,-0.9036255,0.1473999,-9.25,17.9375,-2.828125
1635438305336,0.29711914,-0.9104614,0.22357178,-3.609375,12.890625,-5.640625
1635438305373,0.24316406,-0.94317627,0.19940186,-0.421875,6.84375,-6.578125
1635438305412,0.24414062,-1.0159302,0.21697998,-1.40625,-2.46875,-7.3125
1635438305449,0.1743164,-0.99664307,0.21917725,-1.375,-5.4375,-6.21875
1635438305505,0.17822266,-0.940979,0.19696045,0.859375,-7.90625,-3.1875
1635438305545,0.13574219,-1.0054321,0.23236084,2.96875,-6.1875,-2.15625
1635438305581,0.14916992,-0.9092407,0.19207764,2.328125,-1.34375,-0.421875
1635438305619,0.17919922,-0.9221802,0.21038818,5.375,-3.140625,1.625
1635438305655,0.1784668,-0.9241333,0.2243042,7.265625,-2.6875,2.90625
1635438305693,0.20947266,-0.9500122,0.22772217,9.859375,-7.046875,2.21875
1635438305730,0.17651367,-0.97076416,0.2616577,12.90625,-8.40625,2.0625
1635438305769,0.16992188,-0.96051025,0.24139404,11.328125,-9.578125,0.328125
1635438305806,0.12646484,-0.96832275,0.25115967,11.921875,-8.453125,-1.375
1635438305844,0.11279297,-0.94366455,0.21795654,12.453125,-5.6875,-2.5
1635438305881,0.115234375,-0.9221802,0.20501709,10.796875,-0.890625,-2.328125
1635438305937,0.12597656,-0.9365845,0.26287842,9.203125,-1.0625,-3.78125
1635438305974,0.11206055,-0.9170532,0.26239014,10.90625,-2.640625,-3.796875
1635438306015,0.10986328,-0.9524536,0.2819214,10.25,-1.40625,-4.28125
1635438306050,0.08691406,-0.9668579,0.31707764,11.515625,-1.8125,-4.75
1635438306087,0.08666992,-0.9866333,0.2838745,14.03125,-4.71875,-3.828125
1635438306124,0.07348633,-0.96588135,0.28778076,13.546875,0.34375,-6.0625
1635438306163,0.0078125,-0.95562744,0.26654053,16.390625,3.796875,-6.546875
1635438306199,0.23266602,-1.1384888,0.1942749,14.703125,-12.625,-9.671875
1635438306237,0.3996582,-2.0,-0.14068604,6.3125,-32.828125,8.34375
1635438306274,0.3491211,-0.8364868,-0.77471924,24.09375,-20.140625,-0.390625
1635438306330,-0.47192383,-0.9741821,0.16009521,-14.890625,31.171875,-15.390625
1635438306368,0.34960938,-0.8897095,-0.2197876,-0.40625,16.78125,2.828125
1635438306405,0.18041992,-0.9011841,-0.27667236,0.203125,-1.609375,-10.6875
1635438306443,0.12646484,-0.829895,-0.113098145,-8.3125,-10.859375,-12.09375
1635438306481,0.14501953,-1.0095825,-0.11187744,-4.828125,-20.34375,-14.71875
1635438306518,0.04296875,-0.98272705,-0.15899658,-4.046875,-18.46875,-13.234375
1635438306556,0.011230469,-0.97320557,-0.06866455,-5.171875,-26.171875,-17.1875
1635438306593,0.03881836,-0.97979736,-0.042541504,-4.5,-27.390625,-13.1875
1635438306631,0.026123047,-0.9673462,-0.09039307,-6.1875,-29.78125,-11.25
1635438306669,-0.0017089844,-1.0088501,-0.05670166,-4.96875,-30.96875,-10.53125
1635438306724,-0.046875,-0.97491455,-0.006164551,-5.5625,-32.671875,-9.015625
1635438306762,-0.049560547,-0.9837036,0.028259277,-5.78125,-30.03125,-4.703125
1635438306819,-0.038330078,-1.0110474,0.0067749023,-2.453125,-31.6875,-3.03125
1635438306837,-0.052734375,-0.9902954,0.03289795,-2.109375,-30.46875,-1.96875
1635438306873,-0.103271484,-1.0044556,0.05731201,0.5625,-27.203125,-1.25
1635438306912,-0.13720703,-1.0176392,0.06341553,-0.03125,-23.28125,-1.265625
1635438306950,-0.12231445,-1.017395,0.08905029,-0.828125,-22.3125,-1.71875
1635438306988,-0.13427734,-1.0244751,0.12860107,-0.578125,-18.5625,-1.375
1635438307025,-0.09863281,-0.9956665,0.1305542,1.078125,-20.734375,0.921875
1635438307062,-0.095458984,-1.0234985,0.11199951,0.46875,-18.375,1.328125
1635438307100,-0.05810547,-1.0093384,0.08709717,0.71875,-20.828125,1.609375
1635438307156,-0.048828125,-0.9854126,0.10882568,1.625,-23.328125,1.6875
1635438307193,-0.052001953,-0.98565674,0.09515381,0.984375,-26.515625,2.4375
1635438307231,-0.09887695,-0.9898071,0.11785889,1.03125,-27.625,3.3125
1635438307269,-0.10131836,-1.0042114,0.09857178,0.15625,-27.71875,3.65625
1635438307306,-0.08520508,-0.9998169,0.120788574,1.28125,-27.40625,3.90625
1635438307342,-0.11645508,-0.99835205,0.13885498,0.84375,-24.65625,4.296875
1635438307379,-0.122558594,-1.0193481,0.121032715,0.59375,-22.671875,5.796875
1635438307418,-0.11621094,-1.013977,0.12664795,0.90625,-20.296875,6.28125
1635438307456,-0.111572266,-0.9990845,0.13787842,1.421875,-17.40625,8.09375
1635438307493,-0.10620117,-1.0071411,0.1305542,0.75,-13.46875,8.90625
1635438307549,-0.1237793,-0.99224854,0.14715576,0.625,-10.828125,8.96875
1635438307587,-0.14038086,-0.989563,0.18255615,0.515625,-4.8125,9.4375
1635438307624,-0.14355469,-0.98223877,0.19476318,0.546875,0.328125,10.390625
1635438307662,-0.16967773,-0.944397,0.18695068,0.078125,5.578125,10.265625
1635438307700,-0.15185547,-0.9483032,0.1786499,2.1875,8.484375,11.609375
1635438307737,-0.1340332,-0.94366455,0.22503662,1.28125,9.765625,11.859375
1635438307774,-0.13916016,-0.94659424,0.21697998,-2.234375,11.984375,14.875
1635438307812,-0.0715332,-0.94537354,0.24017334,-5.40625,15.390625,15.0
1635438307851,-0.052734375,-1.1939087,0.11663818,-7.890625,11.6875,15.609375
1635438307888,0.1274414,-1.2988892,0.07489014,-1.40625,23.734375,11.09375
1635438307982,0.48046875,-1.25177,0.005065918,-4.421875,15.78125,11.078125
1635438307986,0.8964844,-0.91900635,0.01751709,3.765625,4.296875,25.328125
1635438308018,0.1015625,-1.0130005,-0.03253174,4.078125,-14.859375,18.96875
1635438308056,0.08227539,-0.94366455,-0.07696533,6.953125,6.40625,4.421875
1635438308093,0.3474121,-0.81988525,-0.05230713,-10.09375,6.796875,-9.703125
1635438308131,0.25708008,-0.9417114,0.046081543,-15.375,4.15625,-7.3125
1635438308169,0.2319336,-0.9522095,0.024841309,-8.328125,8.65625,-7.671875
1635438308206,0.26635742,-0.9234009,0.0758667,-9.078125,13.28125,-6.15625
1635438308243,0.25,-1.022522,0.1552124,-6.828125,6.21875,-7.171875
1635438308281,0.12841797,-0.9578247,0.1359253,-7.875,19.375,-9.1875
1635438308337,0.16381836,-0.9697876,0.12786865,-6.546875,28.984375,-9.5
1635438308374,0.15771484,-0.9963989,0.16571045,-10.46875,31.203125,-11.703125
1635438308412,0.13720703,-0.97491455,0.19329834,-10.828125,42.78125,-10.046875
1635438308449,0.16601562,-0.9800415,0.137146,-12.53125,48.3125,-8.0
1635438308487,0.1887207,-0.9841919,0.13641357,-14.65625,48.078125,-7.984375
1635438308524,0.2175293,-0.95684814,0.13983154,-13.25,51.796875,-5.46875
1635438308562,0.24804688,-1.0005493,0.18890381,-10.75,53.078125,-0.84375
1635438308600,0.2590332,-0.973938,0.17938232,-7.453125,49.6875,2.4375
1635438308637,0.23730469,-0.95635986,0.14813232,-7.0,46.109375,4.375
1635438308679,0.20703125,-0.94366455,0.22723389,-7.59375,52.609375,4.28125
1635438308711,0.24169922,-0.9553833,0.1642456,-8.265625,45.84375,4.4375
1635438308768,0.31347656,-0.9319458,0.15203857,-7.453125,39.65625,5.890625
1635438308805,0.31176758,-0.9619751,0.19232178,-6.65625,35.5,4.6875
1635438308844,0.27416992,-0.9356079,0.19989014,-7.53125,35.484375,1.921875
1635438308880,0.23779297,-0.923645,0.1876831,-6.9375,36.390625,1.390625
1635438308919,0.26879883,-0.9180298,0.19769287,-5.8125,33.21875,0.828125
1635438308955,0.24926758,-0.93585205,0.21600342,-7.015625,36.8125,0.21875
1635438308993,0.2734375,-0.9168091,0.15814209,-2.1875,36.109375,-1.09375
1635438309032,0.2854004,-0.9194946,0.13031006,-0.34375,37.71875,-3.203125
1635438309069,0.30786133,-0.91119385,0.11859131,-1.265625,35.328125,-3.734375
1635438309106,0.32788086,-0.92755127,0.14202881,-1.90625,31.203125,-5.40625
1635438309161,0.30444336,-0.9414673,0.1383667,0.65625,31.8125,-6.234375
1635438309200,0.32788086,-0.9390259,0.08856201,0.703125,26.984375,-6.921875
1635438309242,0.3474121,-0.9534302,0.11883545,3.546875,21.078125,-6.625
1635438309275,0.31323242,-0.96539307,0.09222412,5.640625,18.34375,-7.125
1635438309313,0.30151367,-0.9522095,0.054382324,7.25,16.40625,-8.328125
1635438309349,0.30541992,-0.92974854,0.042419434,8.84375,13.984375,-5.375
1635438309387,0.34326172,-0.9458618,0.05316162,7.6875,4.8125,-4.984375
1635438309425,0.29077148,-0.9495239,0.081726074,6.890625,3.40625,-6.28125
1635438309482,0.28125,-0.93951416,0.043884277,8.453125,2.0625,-6.015625
1635438309500,0.29711914,-0.96759033,0.06317139,6.203125,-4.296875,-6.671875
1635438309556,0.29541016,-0.9866333,0.086364746,5.984375,-6.078125,-7.84375
1635438309593,0.24975586,-0.9841919,0.0770874,5.890625,-4.1875,-7.265625
1635438309632,0.2487793,-0.97442627,0.06488037,6.640625,-6.671875,-7.390625
1635438309668,0.24780273,-0.95880127,0.09100342,6.34375,-7.796875,-7.640625
1635438309707,0.22753906,-0.9331665,0.13470459,7.1875,-8.578125,-7.921875
1635438309743,0.24316406,-0.9295044,0.12005615,9.125,-9.546875,-9.734375
1635438309781,0.27807617,-0.89190674,0.12542725,10.734375,-12.109375,-10.109375
1635438309818,0.22802734,-0.9248657,0.15594482,10.34375,-14.078125,-12.03125
1635438309856,0.22290039,-0.93292236,0.14666748,13.40625,-19.890625,-13.71875
1635438309893,0.21362305,-0.92266846,0.15472412,15.75,-19.671875,-14.46875
1635438309969,0.20800781,-0.90460205,0.16668701,16.59375,-23.484375,-14.453125
1635438309987,0.1977539,-0.92974854,0.2033081,17.65625,-25.9375,-13.9375
1635438310025,0.13476562,-1.0913696,0.13226318,14.359375,-25.53125,-15.140625
1635438310062,0.20385742,-1.3269653,-0.19976807,21.734375,-45.078125,-9.890625
1635438310100,0.20996094,-1.2107544,-0.51641846,24.890625,-45.515625,-5.046875
1635438310137,-0.42456055,-1.2488403,-0.2468872,-1.09375,3.015625,-17.171875
1635438310175,-0.0925293,-1.0508423,-0.17559814,-10.921875,11.328125,-13.796875
1635438310231,0.087402344,-0.9163208,-0.22833252,-7.359375,-12.90625,-9.671875
1635438310250,0.087646484,-0.892395,-0.38067627,-2.5625,-1.8125,-12.40625
1635438310286,0.063964844,-0.91851807,-0.2612915,-3.515625,-17.9375,-12.984375
1635438310325,-0.0053710938,-0.9480591,-0.22686768,-3.859375,-30.453125,-11.890625
1635438310400,-0.016601562,-0.8875122,-0.20050049,-1.953125,-22.5625,-9.265625
1635438310419,-0.038330078,-0.9500122,-0.23687744,-0.015625,-26.25,-9.109375
1635438310455,0.018798828,-0.98638916,-0.17584229,-0.875,-34.921875,-9.71875
1635438310492,-0.0061035156,-0.95269775,-0.17340088,1.6875,-39.515625,-8.078125
1635438310531,-0.064453125,-0.98687744,-0.16998291,2.953125,-39.75,-8.234375
1635438310568,-0.06591797,-1.0044556,-0.17218018,3.453125,-41.0,-8.390625
1635438310610,-0.092041016,-0.9963989,-0.13995361,0.765625,-37.765625,-8.828125
1635438310645,-0.103027344,-1.0054321,-0.13775635,-0.515625,-33.171875,-8.21875
1635438310681,-0.09057617,-0.9768677,-0.13800049,-0.84375,-29.421875,-7.65625
1635438310718,-0.10913086,-1.0054321,-0.10064697,-2.4375,-25.078125,-7.65625
1635438310774,-0.103271484,-1.0056763,-0.10406494,-4.828125,-24.21875,-5.484375
1635438310812,-0.10522461,-1.0545044,-0.10626221,-6.90625,-22.796875,-5.15625
1635438310850,-0.01928711,-0.99005127,-0.047424316,-9.625,-28.359375,-3.453125
1635438310887,-0.07373047,-0.99786377,-0.024475098,-4.8125,-29.46875,-1.484375
1635438310925,-0.068847656,-1.013977,-0.074035645,-5.0625,-35.1875,-1.53125
1635438310962,-0.048095703,-0.9771118,-0.03375244,-5.65625,-40.96875,-1.578125
1635438311000,-0.09399414,-1.0335083,-0.06524658,-1.984375,-41.71875,-1.140625
1635438311037,-0.08251953,-0.9841919,-0.026184082,-3.265625,-44.4375,-1.25
1635438311073,-0.13476562,-1.0010376,-0.012268066,-1.5625,-40.265625,-0.125
1635438311112,-0.15625,-0.9993286,-0.030822754,-1.640625,-35.78125,0.015625
1635438311150,-0.123291016,-1.0283813,-0.011779785,-3.015625,-33.484375,0.796875
1635438311207,-0.107421875,-1.0105591,0.020690918,-3.75,-30.859375,1.921875
1635438311245,-0.123291016,-1.0200806,0.032409668,-3.4375,-23.0,3.171875
1635438311281,-0.09082031,-0.99176025,0.036071777,-4.0625,-17.90625,2.875
1635438311319,-0.076171875,-1.0081177,0.05291748,-3.84375,-13.578125,3.640625
1635438311355,-0.07080078,-1.0134888,0.059265137,-2.40625,-10.484375,2.875
1635438311393,-0.07861328,-1.0264282,0.04510498,-1.359375,-5.078125,3.28125
1635438311431,-0.083984375,-0.99884033,0.066101074,-2.5,-3.015625,2.984375
1635438311469,-0.07373047,-1.0176392,0.049743652,-0.015625,3.40625,4.703125
1635438311505,-0.03173828,-0.9883423,0.022399902,1.5625,6.65625,4.515625
1635438311544,-0.068847656,-0.9973755,0.059020996,2.546875,9.96875,3.75
1635438311599,-0.10595703,-0.9993286,0.05609131,2.40625,18.328125,2.46875
1635438311637,-0.15209961,-1.0222778,0.054382324,1.453125,25.21875,0.265625
1635438311676,-0.12451172,-1.0159302,0.074401855,0.546875,30.0625,-0.515625
1635438311712,-0.07104492,-1.022522,0.0692749,1.109375,34.046875,0.046875
1635438311750,-0.0625,-0.99884033,0.066101074,2.59375,34.625,0.125
1635438311787,-0.055419922,-1.0020142,0.05316162,3.421875,32.921875,0.6875
1635438311826,-0.059570312,-1.0105591,0.06585693,1.78125,30.640625,-0.265625
1635438311863,-0.056884766,-1.005188,0.055358887,0.90625,28.828125,0.109375
1635438311901,-0.067871094,-0.9956665,0.06854248,0.625,28.5,0.0625
1635438311937,-0.04663086,-1.0015259,0.08392334,0.609375,25.9375,1.0625
1635438311993,-0.064941406,-1.00177,0.07611084,0.28125,22.3125,1.71875
1635438312031,-0.080566406,-0.9656372,0.093444824,1.25,25.25,3.0
1635438312068,-0.111328125,-0.98272705,0.12176514,0.4375,20.640625,4.515625
1635438312106,-0.1027832,-0.9780884,0.101257324,0.921875,20.546875,6.96875
1635438312145,-0.106933594,-0.96759033,0.11395264,0.984375,20.46875,8.40625
1635438312181,-0.09106445,-0.9404907,0.15374756,0.46875,20.453125,10.65625
1635438312218,-0.059570312,-0.9456177,0.16204834,1.03125,18.3125,13.421875
1635438312256,-0.061767578,-0.96588135,0.18475342,0.828125,12.28125,14.78125
1635438312294,-0.032714844,-0.9837036,0.17718506,-2.84375,8.984375,16.953125
1635438312331,0.0859375,-1.0234985,0.22991943,6.921875,0.875,18.78125
1635438312368,-0.0073242188,-1.4668579,0.06488037,1.6875,-6.203125,11.265625
1635438312424,0.31518555,-1.3674927,-0.12164307,-2.421875,11.875,10.703125
1635438312463,0.60791016,-0.8491821,-0.02935791,-9.21875,-3.84375,19.796875
1635438312500,0.25219727,-1.1160278,-0.15216064,-0.21875,-14.796875,15.953125
1635438312537,0.14916992,-0.9866333,-0.10308838,3.921875,-3.109375,7.953125
1635438312574,0.34155273,-0.8272095,-0.1609497,-4.140625,-7.375,-1.734375
1635438312613,0.25708008,-0.82159424,0.019470215,-13.5,-2.21875,-4.875
1635438312650,0.2163086,-0.99298096,0.08099365,-4.90625,3.984375,-7.0
1635438312688,0.2770996,-0.9187622,-0.05670166,-1.015625,4.09375,-8.625
1635438312724,0.22827148,-0.9307251,0.028015137,-4.796875,15.09375,-7.703125
1635438312763,0.16918945,-1.0029907,0.0770874,-4.28125,17.71875,-10.09375
1635438312819,0.14477539,-0.9570923,0.062194824,-9.875,27.046875,-11.46875
1635438312856,0.23901367,-0.9692993,0.06048584,-12.546875,26.78125,-10.6875
1635438312893,0.20483398,-0.95025635,0.121520996,-11.03125,28.203125,-11.71875
1635438312933,0.1850586,-0.98809814,0.12200928,-8.296875,30.328125,-9.796875
1635438312968,0.16430664,-0.9805298,0.1251831,-6.390625,27.921875,-9.546875
1635438313006,0.15942383,-0.954895,0.12347412,-6.046875,29.765625,-7.28125
1635438313043,0.16918945,-0.9817505,0.11248779,-5.546875,31.703125,-5.453125
1635438313081,0.1496582,-0.97198486,0.14227295,-4.546875,32.0,-4.59375
1635438313119,0.11621094,-1.0005493,0.14764404,-2.8125,35.6875,-4.15625
1635438313156,0.12451172,-0.9949341,0.15570068,-2.140625,34.75,-3.953125
1635438313231,0.1237793,-1.0125122,0.17108154,-3.890625,33.0,-4.4375
1635438313251,0.11816406,-0.98883057,0.17669678,-4.96875,31.953125,-3.65625
1635438313287,0.13354492,-0.98638916,0.18255615,-6.734375,31.734375,-3.234375
1635438313324,0.13574219,-0.9783325,0.19769287,-7.84375,32.046875,-2.8125
1635438313363,0.12475586,-0.956604,0.215271,-8.90625,29.8125,-3.46875
1635438313400,0.10107422,-0.96588135,0.2243042,-9.640625,28.265625,-3.984375
1635438313437,0.11376953,-0.9805298,0.22821045,-9.9375,26.34375,-4.734375
1635438313475,0.10205078,-0.98150635,0.23480225,-6.84375,26.84375,-5.046875
1635438313512,0.11230469,-0.9692993,0.22918701,-7.296875,24.015625,-4.859375
1635438313550,0.111328125,-0.97198486,0.25653076,-6.953125,23.78125,-4.0
1635438313587,0.1237793,-0.95758057,0.25506592,-6.140625,21.84375,-3.296875
1635438313644,0.12109375,-0.9517212,0.28289795,-5.265625,20.3125,-2.25
1635438313681,0.12939453,-0.95391846,0.28607178,-3.9375,17.0,-1.5625
1635438313718,0.10961914,-0.95977783,0.27947998,0.3125,15.546875,-1.328125
1635438313756,0.099365234,-0.9714966,0.2662964,4.75,13.984375,-2.34375
1635438313793,0.099609375,-0.9805298,0.23138428,9.84375,15.78125,-2.578125
1635438313832,0.12036133,-0.98101807,0.23968506,13.078125,16.4375,-3.796875
1635438313867,0.13598633,-0.9692993,0.25164795,11.9375,15.0,-2.5625
1635438313907,0.119140625,-0.9685669,0.24847412,13.265625,12.8125,-2.4375
1635438313942,0.125,-0.9614868,0.2321167,14.0,9.34375,-1.046875
1635438313980,0.12915039,-0.9507446,0.2489624,15.921875,6.890625,-1.609375
1635438314037,0.12524414,-0.92559814,0.2526245,17.4375,5.921875,-1.421875
1635438314074,0.1171875,-0.9209595,0.23114014,18.34375,1.359375,-2.25
1635438314112,0.11206055,-0.8982544,0.23138428,20.1875,-1.578125,-2.828125
1635438314151,0.07861328,-0.8870239,0.23626709,20.703125,-2.96875,-4.140625
1635438314187,0.09106445,-0.9944458,0.1696167,23.34375,-7.0625,-6.375
1635438314225,0.2644043,-1.3574829,-0.0012817383,30.390625,-24.09375,-7.921875
1635438314280,0.17749023,-1.3269653,-0.2654419,31.703125,-27.484375,-4.53125
1635438314299,-0.32080078,-1.0881958,-0.2571411,8.921875,24.46875,-10.90625
1635438314338,0.20947266,-0.98760986,-0.13922119,-5.234375,32.78125,-4.890625
1635438314468,0.32763672,-0.90753174,-0.11138916,3.15625,6.921875,-5.484375
1635438314472,0.1315918,-0.93292236,-0.2029419,4.359375,3.96875,-7.171875
1635438314476,0.079833984,-0.92559814,-0.24127197,-1.703125,1.734375,-10.375
1635438314507,0.056396484,-0.9834595,-0.1651001,-1.890625,-5.515625,-11.765625
1635438314543,0.09350586,-1.0044556,-0.13018799,-3.09375,-13.109375,-12.1875
1635438314581,0.05908203,-0.9741821,-0.09454346,-6.203125,-9.84375,-10.578125
1635438314618,0.03930664,-0.96295166,-0.097229004,-5.359375,-13.703125,-10.25
1635438314656,0.0859375,-0.9854126,-0.10333252,-2.578125,-21.921875,-8.53125
1635438314693,0.052734375,-0.9771118,-0.09991455,-3.0,-28.234375,-9.65625
1635438314731,-0.0012207031,-0.98638916,-0.093811035,-2.75,-27.359375,-9.609375
1635438314768,-0.02319336,-1.00177,-0.082336426,-3.09375,-31.109375,-9.4375
1635438314806,-0.015136719,-1.000061,-0.07159424,-3.4375,-34.1875,-8.71875
1635438314881,-0.030273438,-1.010315,-0.05621338,-2.984375,-35.71875,-8.21875
1635438314899,-0.064697266,-1.00177,-0.07183838,-1.640625,-34.78125,-8.71875
1635438314937,-0.07885742,-1.0154419,-0.06719971,-0.171875,-32.640625,-7.421875
1635438314974,-0.07910156,-1.013977,-0.054748535,-2.0,-34.875,-7.984375
1635438315031,-0.10205078,-0.99713135,-0.029846191,-2.109375,-35.828125,-6.5625
1635438315049,-0.10424805,-1.0046997,-0.031555176,-0.234375,-37.4375,-5.15625
1635438315086,-0.12475586,-0.9788208,-0.015686035,-2.609375,-39.8125,-3.46875
1635438315125,-0.13867188,-0.9963989,0.004333496,-2.6875,-40.546875,-2.1875
1635438315162,-0.13061523,-1.0037231,0.02947998,-1.078125,-40.171875,-0.03125
1635438315202,-0.13061523,-1.0134888,0.00970459,-1.984375,-40.09375,0.1875
1635438315255,-0.14990234,-1.0154419,0.04071045,-2.375,-37.265625,0.59375
1635438315293,-0.13134766,-1.0237427,0.035339355,-1.5,-34.625,0.984375
1635438315331,-0.14257812,-1.0117798,0.058044434,-2.25,-32.9375,1.609375
1635438315368,-0.14501953,-1.0029907,0.09295654,-2.203125,-31.390625,2.46875
1635438315406,-0.15722656,-0.9890747,0.10662842,-1.9375,-29.34375,3.765625
1635438315443,-0.13989258,-0.9849243,0.1071167,-1.25,-27.359375,5.390625
1635438315480,-0.1237793,-0.9902954,0.12713623,0.21875,-27.0,6.921875
1635438315517,-0.16308594,-0.9758911,0.15008545,-1.28125,-22.671875,7.3125
1635438315555,-0.123291016,-0.9636841,0.16571045,-1.71875,-21.578125,8.953125
1635438315593,-0.12231445,-0.96173096,0.19671631,-2.515625,-19.921875,10.671875
1635438315649,-0.1665039,-0.91607666,0.22332764,-4.21875,-16.484375,12.125
1635438315687,-0.16064453,-0.9038696,0.23309326,-4.8125,-14.28125,14.0625
1635438315724,-0.14013672,-0.90875244,0.26068115,-6.421875,-12.28125,17.9375
1635438315762,-0.11425781,-0.88116455,0.25653076,-8.890625,-7.828125,20.9375
1635438315800,0.03173828,-1.131897,0.16595459,-0.859375,-16.75,27.96875
1635438315837,0.25439453,-1.9463501,-0.3418579,10.0,-22.125,29.234375
1635438315874,1.0185547,-1.0032349,-0.042297363,5.59375,11.8125,19.890625
1635438315911,0.28955078,-1.173645,-0.17266846,-9.859375,-17.640625,20.78125
1635438315949,0.1003418,-0.98101807,0.016052246,4.703125,-38.640625,17.46875
1635438315986,0.28979492,-0.7420044,0.08782959,-9.34375,-20.0,-0.15625
1635438316024,0.28125,-0.8569946,-0.045959473,-8.328125,-39.5625,-5.921875
1635438316082,0.24975586,-0.7974243,0.086364746,-9.609375,-25.6875,-5.796875
1635438316125,0.13647461,-0.87628174,0.14300537,-8.671875,-14.75,-7.234375
1635438316159,0.18334961,-0.90216064,0.13397217,-8.96875,-4.015625,-9.328125
1635438316193,0.12548828,-0.94415283,0.22576904,-8.171875,14.1875,-11.0
1635438316231,0.14282227,-0.97076416,0.21014404,-8.875,22.921875,-13.296875
1635438316268,0.13574219,-0.97735596,0.16766357,-8.125,34.875,-16.203125
1635438316307,0.17480469,-0.9536743,0.18548584,-5.5625,41.203125,-15.453125
1635438316343,0.18823242,-0.96099854,0.21258545,-6.421875,39.4375,-15.03125
1635438316380,0.16137695,-0.9788208,0.19793701,-5.09375,42.28125,-15.34375
1635438316418,0.14038086,-0.99542236,0.17669678,-2.796875,47.203125,-16.5625
1635438316475,0.12060547,-1.0015259,0.23187256,-2.40625,50.125,-16.921875
1635438316512,0.1274414,-1.0020142,0.23529053,-4.796875,50.171875,-15.265625
1635438316549,0.084472656,-0.98638916,0.24041748,-5.625,51.40625,-14.515625
1635438316588,0.09863281,-0.96661377,0.25457764,-6.078125,50.8125,-12.203125
1635438316624,0.12060547,-0.9512329,0.23846436,-5.546875,47.375,-10.96875
1635438316663,0.06347656,-0.9639282,0.25579834,-3.453125,46.875,-10.640625
1635438316700,0.059570312,-0.9685669,0.260437,-4.09375,46.21875,-11.328125
1635438316738,0.06347656,-0.95684814,0.28240967,-5.609375,43.546875,-11.5625
1635438316774,0.072265625,-0.99053955,0.32635498,-10.28125,38.15625,-11.9375
1635438316812,0.013183594,-0.9578247,0.3300171,-7.078125,39.40625,-12.21875
1635438316868,0.0017089844,-0.96881104,0.30706787,-7.984375,37.234375,-11.15625
1635438316906,0.036621094,-1.0198364,0.33758545,-9.3125,37.34375,-10.265625
1635438316944,0.079833984,-0.99884033,0.36053467,-10.6875,36.625,-8.296875
1635438316980,0.07861328,-1.0151978,0.35638428,-11.703125,32.859375,-6.921875
1635438317018,0.037353516,-0.9783325,0.338562,-10.203125,35.5625,-4.71875
