# Sensor type: Respeck
# Activity type: Movement
# Activity code: 9
# Subject id: s2056220
# Notes: 
timestamp,accel_x,accel_y,accel_z,gyro_x,gyro_y,gyro_z
1635452219112,-0.41381836,0.8759155,-0.06817627,6.265625,-0.765625,0.53125
1635452219150,-0.42138672,0.92352295,-0.11065674,-0.796875,-1.3125,1.796875
1635452219187,-0.4321289,0.92889404,-0.10064697,3.5625,-0.25,0.5
1635452219224,-0.41210938,0.92181396,-0.10479736,3.828125,1.359375,-0.890625
1635452219262,-0.40014648,0.92523193,-0.116760254,-1.453125,-1.046875,-1.46875
1635452219318,-0.37939453,0.87615967,-0.12213135,0.671875,-0.046875,-0.21875
1635452219355,-0.40014648,0.90008545,-0.109436035,-3.28125,1.390625,3.0625
1635452219393,-0.42822266,0.93011475,-0.13189697,-5.46875,6.46875,2.40625
1635452219431,-0.42993164,0.9347534,-0.14361572,-4.71875,7.015625,-2.0625
1635452219470,-0.3630371,0.88275146,-0.09210205,-3.5,5.328125,-4.015625
1635452219506,-0.34399414,0.88812256,-0.08428955,-6.6875,7.84375,-1.78125
1635452219543,-0.3544922,0.9071655,-0.093811035,-10.46875,8.984375,-1.140625
1635452219581,-0.3569336,0.9303589,-0.12652588,-10.296875,4.828125,-1.6875
1635452219618,-0.3725586,0.97943115,-0.14019775,-9.390625,6.34375,-2.515625
1635452219656,-0.37548828,0.9244995,-0.14093018,-4.078125,8.53125,-3.390625
1635452219712,-0.3791504,0.8876343,-0.1260376,-4.109375,9.859375,-2.3125
1635452219750,-0.39868164,0.914978,-0.15411377,-6.421875,12.171875,-0.984375
1635452219787,-0.37158203,0.9352417,-0.18682861,-2.609375,15.3125,-0.015625
1635452219824,-0.33374023,0.9359741,-0.18121338,1.59375,17.421875,-0.1875
1635452219862,-0.31420898,0.8883667,-0.12432861,5.0625,19.140625,0.484375
1635452219899,-0.25195312,0.85150146,-0.09649658,0.296875,16.09375,1.15625
1635452219937,-0.22192383,0.93133545,-0.12799072,0.203125,14.265625,4.515625
1635452219975,-0.2121582,0.9660034,-0.12872314,2.96875,11.0625,8.796875
1635452220013,-0.27929688,0.8986206,-0.13409424,2.4375,10.6875,10.734375
1635452220049,-0.46850586,0.899353,-0.13726807,7.34375,6.28125,18.34375
1635452220107,-0.6608887,1.1088257,-0.13897705,17.890625,1.046875,23.515625
1635452220143,-0.8154297,1.2662964,-0.10064697,23.234375,16.46875,5.46875
1635452220181,-0.5761719,0.85443115,-0.093566895,-12.421875,5.875,-6.921875
1635452220219,-0.5361328,0.8395386,-0.108947754,-10.78125,10.421875,7.015625
1635452220256,-0.65600586,0.78948975,-0.08258057,14.671875,16.640625,18.59375
1635452220293,-0.7648926,0.65960693,0.020690918,15.71875,13.359375,12.703125
1635452220331,-0.7241211,0.7416382,-0.059631348,-9.78125,1.21875,1.25
1635452220369,-0.6779785,0.81658936,-0.16412354,-2.828125,-3.125,-1.703125
1635452220406,-0.6965332,0.77948,-0.06744385,9.796875,0.71875,-1.0625
1635452220443,-0.63500977,0.73602295,-0.043762207,8.515625,-3.4375,1.765625
1635452220481,-0.58447266,0.6664429,-0.13238525,5.15625,-0.5,-0.015625
1635452220536,-0.6303711,0.7289429,-0.004211426,14.125,-2.59375,-1.3125
1635452220575,-0.61694336,0.73065186,0.02532959,6.796875,-0.125,-6.0625
1635452220613,-0.5593262,0.80511475,-0.02935791,-1.5625,-9.6875,-4.734375
1635452220650,-0.57470703,0.8644409,-0.19439697,-11.453125,-9.859375,2.90625
1635452220687,-0.6491699,0.8356323,-0.08062744,14.234375,0.578125,2.0
1635452220724,-0.6159668,0.7296753,-0.037902832,8.96875,-4.921875,-6.328125
1635452220762,-0.62475586,0.72650146,-0.030090332,0.4375,-8.171875,-8.796875
1635452220801,-0.5461426,0.82318115,-0.004211426,11.25,-3.125,-7.75
1635452220856,-0.4970703,0.87713623,-0.06866455,0.0,-5.71875,-10.75
1635452220876,-0.5175781,0.93621826,-0.093322754,0.75,-7.546875,-13.125
1635452220930,-0.54125977,0.85565186,-0.028869629,15.125,-7.53125,-13.375
1635452220968,-0.5588379,0.7670288,0.020202637,13.65625,-7.5,-12.328125
1635452221006,-0.54125977,0.8024292,0.0060424805,3.96875,-4.546875,-8.65625
1635452221045,-0.5534668,0.92840576,-0.07745361,-3.078125,-1.921875,-3.71875
1635452221081,-0.5576172,0.9398804,-0.11090088,1.375,1.515625,-2.28125
1635452221119,-0.5510254,0.82977295,-0.02545166,5.03125,3.515625,-3.359375
1635452221159,-0.55029297,0.80096436,-0.00592041,-1.921875,6.125,-2.5
1635452221194,-0.50634766,0.8439331,-0.03643799,-7.21875,10.6875,-0.03125
1635452221231,-0.46972656,0.91619873,-0.11212158,-9.65625,11.6875,0.046875
1635452221268,-0.4873047,0.902771,-0.10699463,-8.4375,9.265625,-1.953125
1635452221325,-0.49047852,0.82562256,-0.055236816,-6.921875,12.921875,-2.546875
1635452221362,-0.43164062,0.83514404,-0.06768799,-4.765625,15.78125,0.21875
1635452221400,-0.37841797,0.86834717,-0.14874268,-6.1875,13.9375,-1.09375
1635452221438,-0.37524414,0.86224365,-0.18780518,-7.0625,11.234375,2.578125
1635452221475,-0.39013672,0.9645386,-0.08721924,-4.515625,4.25,4.171875
1635452221512,-0.39013672,1.1119995,-0.18927002,-13.5,5.578125,1.703125
1635452221550,-0.41333008,1.0534058,-0.2078247,0.546875,6.875,2.28125
1635452221588,-0.41967773,0.9179077,-0.14996338,8.125,6.5625,1.1875
1635452221625,-0.3852539,0.75531006,-0.03668213,-4.203125,11.546875,0.921875
1635452221662,-0.28637695,0.81414795,-0.14605713,-13.046875,2.90625,2.46875
1635452221700,-0.3791504,0.9220581,-0.089416504,-7.609375,7.84375,7.578125
1635452221757,-0.3815918,0.88323975,-0.07183838,-2.1875,19.25,10.8125
1635452221794,-0.3918457,0.90789795,-0.047424316,-6.296875,15.9375,10.8125
1635452221831,-0.3635254,0.95843506,-0.14093018,-9.4375,23.09375,6.203125
1635452221870,-0.31689453,0.93377686,-0.06866455,1.84375,20.984375,6.859375
1635452221906,-0.26708984,0.9569702,-0.0032348633,6.96875,19.71875,7.453125
1635452221944,-0.3569336,0.9660034,-0.06304932,13.859375,9.953125,15.421875
1635452221986,-0.7116699,1.2079468,-0.08428955,23.875,-0.171875,19.953125
1635452222019,-1.1503906,1.2973022,-0.05230713,-9.125,-7.078125,14.296875
1635452222056,-1.2641602,1.0866089,-0.1765747,-0.796875,11.75,6.5
1635452222094,-0.64746094,0.65008545,-0.090148926,-4.78125,5.0,-12.03125
1635452222150,-0.4284668,0.38616943,0.038513184,27.515625,-7.90625,-6.765625
1635452222190,-0.5119629,0.3883667,0.012390137,15.84375,-6.78125,4.28125
1635452222225,-0.6928711,0.4706421,0.066101074,1.03125,-0.9375,2.375
1635452222262,-0.68310547,0.6798706,-0.116760254,-7.90625,-12.953125,-6.78125
1635452222300,-0.70874023,0.72991943,-0.21368408,6.0,-10.1875,-3.625
1635452222337,-0.8129883,0.80145264,-0.008850098,23.390625,-1.59375,5.640625
1635452222375,-0.7182617,0.7645874,0.04119873,8.71875,2.453125,0.984375
1635452222413,-0.6582031,0.8488159,0.012390137,2.1875,-8.140625,-10.28125
1635452222452,-0.625,0.83465576,-0.00592041,5.515625,-10.359375,-17.328125
1635452222489,-0.6064453,0.7357788,0.007019043,22.046875,-8.375,-14.25
1635452222544,-0.5683594,0.715271,-0.024963379,12.8125,-8.9375,-5.453125
1635452222581,-0.6254883,0.8012085,0.008483887,3.484375,-7.515625,3.578125
1635452222618,-0.6809082,0.8390503,-0.030822754,8.78125,2.171875,-4.453125
1635452222655,-0.6472168,0.81121826,-0.02520752,9.171875,-5.625,-5.9375
1635452222693,-0.5827637,0.80511475,-0.013244629,-0.328125,-4.921875,-7.4375
1635452222731,-0.5793457,0.7741089,0.022888184,9.71875,1.8125,-2.4375
1635452222769,-0.5900879,0.8053589,0.0079956055,1.75,-3.46875,-0.21875
1635452222809,-0.59106445,0.8554077,0.050231934,-0.484375,-4.03125,-2.46875
1635452222843,-0.5241699,0.87542725,9.1552734E-4,-0.140625,-0.859375,-6.578125
1635452222881,-0.50097656,0.8241577,0.0021362305,0.5,-6.671875,-7.484375
1635452222918,-0.5534668,0.80999756,0.0524292,3.9375,-5.171875,-2.46875
1635452222975,-0.576416,0.84246826,0.05340576,-3.8125,-0.234375,-3.296875
1635452223012,-0.5239258,0.9039917,0.024353027,-2.0,-0.890625,-5.171875
1635452223050,-0.5422363,0.86883545,0.00579834,-1.28125,-2.890625,-9.859375
1635452223087,-0.46557617,0.8739624,0.038513184,-3.484375,-1.875,-12.90625
1635452223125,-0.3857422,0.87249756,-0.08013916,-8.28125,-5.609375,-10.09375
1635452223162,-0.49316406,0.88031006,-0.097229004,13.09375,-3.28125,-1.40625
1635452223200,-0.5629883,0.87957764,-0.036193848,6.375,0.765625,-1.59375
1635452223237,-0.6381836,0.88812256,-0.06060791,-16.34375,1.296875,-0.859375
1635452223275,-0.5288086,0.980896,-0.14263916,-16.59375,15.921875,-9.03125
1635452223312,-0.43676758,0.79901123,-0.15020752,-8.515625,17.5,-11.09375
1635452223368,-0.39624023,0.74017334,-0.1326294,-6.078125,8.46875,0.875
1635452223406,-0.41015625,0.79486084,-0.08087158,-10.140625,13.234375,6.78125
1635452223444,-0.41015625,0.89715576,-0.15509033,-5.9375,9.015625,4.1875
1635452223481,-0.3876953,1.0565796,-0.121154785,-5.015625,1.4375,0.40625
1635452223518,-0.37670898,1.2018433,-0.18341064,-4.953125,2.875,-1.1875
1635452223556,-0.3635254,0.9852905,-0.19781494,5.890625,4.890625,-0.9375
1635452223595,-0.3881836,0.84832764,-0.0713501,1.84375,1.609375,-2.671875
1635452223630,-0.49194336,0.78582764,-0.08062744,-7.53125,11.203125,-2.28125
1635452223668,-0.3605957,0.8493042,-0.10064697,-7.6875,6.578125,4.71875
1635452223706,-0.34716797,1.0350952,-0.13116455,-3.75,10.828125,4.359375
1635452223763,-0.33520508,0.9423218,-0.09942627,-2.0,14.203125,4.296875
1635452223800,-0.32910156,0.86639404,-0.078430176,-7.375,16.890625,6.265625
1635452223838,-0.29663086,0.8588257,-0.0881958,-3.40625,14.171875,5.5625
1635452223875,-0.34277344,0.9484253,-0.037902832,1.0625,18.0,7.953125
1635452223913,-0.3479004,0.9594116,-0.013244629,8.25,24.828125,9.828125
1635452223949,-0.4194336,0.9935913,-0.27349854,13.09375,2.125,12.421875
1635452223987,-0.85546875,1.2902222,-0.1663208,0.859375,-10.765625,19.171875
1635452224025,-1.5197754,1.3231812,-0.0803833,2.765625,32.328125,23.921875
1635452224062,-0.8833008,0.85931396,-0.09259033,-22.09375,-1.375,-5.75
1635452224099,-0.38305664,0.5643921,-0.06524658,1.84375,15.421875,-13.078125
1635452224137,-0.42211914,0.28533936,0.09613037,50.671875,11.8125,7.765625
1635452224194,-0.5437012,0.36029053,0.22357178,27.15625,5.9375,11.21875
1635452224230,-0.62060547,0.6322632,0.0072631836,-14.171875,-6.609375,2.796875
1635452224268,-0.7060547,1.1647339,-0.22735596,-3.46875,-7.234375,-0.921875
1635452224305,-0.68774414,0.87957764,-0.11114502,29.421875,5.96875,3.96875
1635452224343,-0.6953125,0.52508545,0.15667725,21.015625,-6.640625,0.875
1635452224381,-0.6213379,0.6491089,0.12347412,6.4375,-10.6875,-3.1875
1635452224418,-0.67626953,0.7914429,-0.109191895,-1.546875,-13.234375,-6.125
1635452224456,-0.7717285,0.7953491,0.03289795,18.15625,-2.96875,-0.765625
1635452224493,-0.69921875,0.62054443,0.14984131,20.96875,8.09375,-4.609375
1635452224532,-0.6152344,0.7345581,0.05706787,7.59375,-12.0625,0.84375
1635452224587,-0.70166016,0.98236084,-0.039367676,-11.0625,-10.78125,4.953125
1635452224624,-0.7609863,0.86517334,0.066833496,25.328125,15.296875,1.015625
1635452224662,-0.60546875,0.64178467,0.1630249,20.375,4.96875,-7.765625
1635452224718,-0.5510254,0.7387085,0.1005249,-1.171875,-13.40625,1.609375
1635452224738,-0.6425781,0.826355,0.0067749023,3.09375,1.75,7.921875
1635452224775,-0.689209,0.79119873,0.10662842,14.578125,0.3125,2.625
1635452224813,-0.6984863,0.74505615,0.1630249,4.046875,-4.046875,-3.296875
1635452224849,-0.59472656,0.7477417,0.121520996,5.765625,0.125,-4.5
1635452224887,-0.546875,0.77948,0.03289795,-2.0625,-6.359375,-0.875
1635452224924,-0.6628418,0.85858154,0.11224365,4.265625,-2.78125,0.984375
1635452224981,-0.65234375,0.8024292,0.1317749,6.140625,0.3125,-5.78125
1635452225018,-0.59472656,0.7369995,0.07562256,-0.296875,-3.75,-11.0
1635452225055,-0.5817871,0.7614136,0.08807373,-2.265625,-7.609375,-5.78125
1635452225093,-0.6225586,0.7982788,0.101257324,-1.53125,-2.25,-3.71875
1635452225131,-0.6340332,0.8082886,0.09295654,-2.265625,-4.546875,-6.984375
1635452225168,-0.5925293,0.8082886,0.093688965,-4.34375,-5.953125,-10.625
1635452225207,-0.5834961,0.81414795,0.074157715,-6.53125,-4.234375,-10.609375
1635452225243,-0.5654297,0.82196045,0.051208496,-8.265625,-2.25,-8.828125
1635452225281,-0.55126953,0.90179443,0.05682373,-6.46875,-4.46875,-5.8125
1635452225318,-0.6455078,0.97210693,-0.051330566,-16.75,-8.171875,-0.28125
1635452225374,-0.6530762,0.9154663,-0.046447754,-8.671875,6.296875,-2.4375
1635452225412,-0.51538086,0.7001343,-0.027648926,0.796875,10.703125,-12.34375
1635452225450,-0.38891602,0.60369873,-0.066467285,-13.03125,-4.953125,-13.65625
1635452225487,-0.38354492,0.77093506,0.007019043,-23.09375,-6.890625,-3.640625
1635452225524,-0.41601562,1.230896,-0.055725098,-18.765625,0.90625,6.0
1635452225562,-0.39379883,1.402771,-0.2715454,0.3125,2.921875,-4.34375
1635452225600,-0.48461914,0.89764404,-0.05718994,7.96875,12.03125,-6.59375
1635452225636,-0.49829102,0.6442261,0.08319092,-5.84375,8.71875,-12.875
1635452225674,-0.37548828,0.621521,-0.11431885,-27.265625,0.96875,-9.515625
1635452225712,-0.38671875,0.91864014,-0.22589111,-7.078125,4.53125,4.0
1635452225751,-0.4255371,1.0270386,-0.16217041,2.125,23.515625,11.0625
1635452225805,-0.44360352,0.951355,-0.10675049,-10.078125,16.375,2.140625
1635452225843,-0.35131836,0.94647217,-0.101867676,0.65625,12.53125,-3.59375
1635452225881,-0.22802734,0.9533081,-0.11920166,3.59375,13.828125,2.171875
1635452225918,-0.265625,0.8876343,-0.109680176,-5.6875,14.140625,8.484375
1635452225955,-0.33642578,0.8485718,0.0048217773,3.703125,14.625,8.984375
1635452225993,-0.35131836,0.8361206,-0.014953613,5.796875,15.875,6.921875
1635452226031,-0.54541016,0.95843506,-0.30352783,-2.359375,-0.734375,15.9375
1635452226068,-0.9729004,1.3024292,-0.11431885,30.453125,3.5,18.796875
1635452226106,-1.3671875,1.1090698,-0.04425049,-3.296875,24.40625,15.84375
1635452226143,-0.8339844,0.87371826,-0.11871338,-28.453125,1.0625,-3.765625
1635452226200,-0.4711914,0.5272827,-0.05303955,19.671875,9.859375,-17.34375
1635452226236,-0.46264648,0.39422607,0.06561279,27.4375,0.1875,1.3125
1635452226274,-0.5410156,0.46551514,0.055603027,-3.015625,6.796875,9.390625
1635452226312,-0.7392578,0.729187,-0.07867432,-12.5625,-3.90625,3.671875
1635452226351,-0.7907715,1.0175171,-0.08648682,11.46875,5.546875,-5.234375
1635452226387,-0.6689453,0.78582764,-0.07354736,5.28125,4.109375,-10.5
1635452226425,-0.6098633,0.69940186,0.020935059,3.09375,-3.375,-6.671875
1635452226462,-0.55688477,0.7133179,0.03265381,9.296875,-1.84375,-2.6875
1635452226500,-0.6074219,0.7494507,-0.06890869,3.390625,-6.984375,1.203125
1635452226537,-0.62719727,0.8095093,-0.0044555664,11.875,-10.8125,-0.234375
1635452226593,-0.6491699,0.7887573,-0.07647705,7.140625,-8.21875,-5.953125
1635452226631,-0.6809082,0.9008179,0.005065918,11.59375,-8.59375,-4.609375
1635452226668,-0.58203125,0.8082886,-0.043273926,7.53125,-0.84375,-7.90625
1635452226706,-0.5871582,0.73968506,-0.03741455,11.75,-6.53125,-6.125
1635452226744,-0.6101074,0.777771,0.025817871,6.078125,-10.28125,-3.59375
1635452226780,-0.60913086,0.8004761,-0.0051879883,2.875,-5.0625,-4.09375
1635452226818,-0.59594727,0.8493042,-0.054260254,9.921875,-5.34375,-1.890625
1635452226856,-0.5859375,0.836853,-0.013977051,5.625,-5.4375,-3.328125
1635452226894,-0.6213379,0.78656006,0.024597168,3.609375,-3.609375,-4.21875
1635452226931,-0.59765625,0.795105,0.042907715,3.75,-3.96875,-1.625
1635452226969,-0.5751953,0.84906006,-0.0037231445,3.1875,0.4375,-0.09375
1635452227025,-0.5571289,0.8722534,-0.04425049,-0.8125,0.015625,-3.5
1635452227062,-0.560791,0.82318115,0.035583496,0.40625,-4.171875,-4.796875
1635452227099,-0.57006836,0.8019409,0.043395996,-1.375,1.625,-4.375
1635452227137,-0.56469727,0.8444214,-5.493164E-4,-6.640625,3.015625,-2.859375
1635452227175,-0.5671387,0.8859253,-0.011779785,-10.3125,5.546875,-2.546875
1635452227213,-0.55859375,0.8930054,-0.036193848,-11.046875,8.203125,-4.453125
1635452227250,-0.53027344,0.8187866,0.00970459,-9.28125,6.140625,-9.140625
1635452227288,-0.5263672,0.852478,0.048034668,-5.5,6.109375,-7.53125
1635452227325,-0.5209961,0.98895264,-0.12896729,-18.90625,8.75,-1.625
1635452227363,-0.52783203,0.95648193,-0.2703247,-15.96875,14.359375,-0.40625
1635452227419,-0.45507812,0.6742554,-0.097717285,5.59375,12.96875,-2.734375
1635452227457,-0.38378906,0.5734253,0.12615967,3.75,5.5,-4.15625
1635452227495,-0.36254883,1.0494995,0.005065918,-26.921875,-4.765625,0.875
1635452227532,-0.3557129,1.5558472,-0.3892212,-32.53125,-5.109375,-9.921875
1635452227569,-0.4387207,1.0324097,-0.26275635,14.75,9.109375,-5.96875
1635452227607,-0.40307617,0.6972046,0.051452637,17.625,12.765625,-8.09375
1635452227644,-0.32543945,0.59417725,0.09564209,-21.34375,10.28125,-6.1875
1635452227681,-0.36499023,0.7416382,-0.18878174,-40.265625,7.703125,2.796875
1635452227719,-0.45239258,1.0770874,-0.2937622,-20.359375,11.796875,4.0625
1635452227757,-0.45996094,1.09906,-0.25909424,1.5,15.953125,-5.40625
1635452227851,-0.32983398,0.9579468,-0.17462158,-1.640625,17.765625,-7.59375
1635452227856,-0.20581055,0.8383179,-0.14117432,-3.53125,15.84375,-2.34375
1635452227887,-0.22875977,0.88983154,-0.19976807,-3.84375,6.40625,1.40625
1635452227926,-0.2956543,0.96307373,-0.1951294,0.15625,9.015625,6.140625
1635452227963,-0.28857422,0.9032593,-0.18707275,8.4375,11.75,7.765625
1635452228001,-0.25,0.8744507,-0.15802002,6.546875,7.984375,5.875
1635452228039,-0.31054688,0.9159546,-0.20880127,3.203125,7.78125,9.78125
1635452228075,-0.5085449,1.0441284,-0.28253174,16.234375,0.953125,19.90625
1635452228112,-0.7368164,1.2098999,-0.21173096,45.21875,-13.875,15.25
1635452228153,-1.0480957,1.1264038,-0.08746338,-3.03125,-1.5,10.859375
1635452228188,-1.0671387,0.97576904,-0.2630005,-12.5,11.234375,9.890625
1635452228244,-0.6660156,0.6400757,-0.043518066,25.609375,10.734375,6.953125
1635452228284,-0.5500488,0.37298584,0.10443115,44.84375,8.640625,6.140625
1635452228319,-0.5361328,0.3295288,0.049743652,8.140625,-0.984375,3.078125
1635452228357,-0.69555664,0.6095581,-0.02935791,-24.53125,-15.453125,1.828125
1635452228394,-0.6152344,0.9254761,-0.14312744,10.359375,-5.1875,2.8125
1635452228432,-0.69091797,0.758728,-0.14630127,28.796875,2.953125,-1.46875
1635452228469,-0.6472168,0.67303467,-0.0071411133,4.234375,-10.140625,0.75
1635452228507,-0.67993164,0.71917725,-0.016174316,-5.53125,-13.078125,1.5
1635452228544,-0.7219238,0.88323975,-0.070617676,10.796875,-14.609375,-1.53125
1635452228582,-0.6635742,0.795105,-0.0635376,4.421875,-9.5625,-6.765625
1635452228637,-0.6464844,0.7279663,-0.04425049,7.78125,-5.609375,-7.640625
1635452228677,-0.63964844,0.74017334,-0.020568848,5.9375,-8.5625,-8.140625
1635452228713,-0.66918945,0.7838745,-0.039123535,0.625,-6.125,-9.609375
1635452228751,-0.6274414,0.8036499,-0.049621582,9.0625,-2.140625,-11.3125
1635452228788,-0.560791,0.79608154,-0.038635254,9.640625,-1.640625,-12.140625
1635452228844,-0.5415039,0.79681396,-0.022277832,6.0,-3.484375,-12.734375
1635452228863,-0.57177734,0.79193115,-0.01739502,4.359375,-6.671875,-14.125
1635452228901,-0.6101074,0.8822632,-0.038391113,3.015625,-7.640625,-9.1875
1635452228940,-0.6152344,0.9491577,-0.082092285,-2.578125,3.015625,-4.390625
1635452228975,-0.58032227,0.8578491,-0.08746338,0.71875,10.546875,-6.59375
1635452229032,-0.60498047,0.7543335,-0.038146973,-3.421875,9.265625,-5.265625
1635452229070,-0.5163574,0.8175659,0.004333496,-7.046875,13.5,-3.8125
1635452229109,-0.46264648,0.92059326,-0.15679932,-9.78125,12.375,-9.796875
1635452229144,-0.38671875,0.9515991,-0.19268799,-11.578125,2.8125,-7.8125
1635452229182,-0.45166016,0.88739014,-0.078430176,-6.140625,8.890625,-0.140625
1635452229219,-0.48632812,0.87542725,-0.06768799,-7.984375,11.875,0.5
1635452229256,-0.44580078,0.88812256,-0.10430908,-11.6875,9.265625,-3.25
1635452229294,-0.42114258,0.899353,-0.11529541,-5.546875,7.703125,-5.203125
1635452229332,-0.42114258,0.9081421,-0.11407471,-7.359375,6.703125,-5.875
1635452229370,-0.43408203,0.88568115,-0.116760254,-8.4375,7.71875,-5.0625
1635452229407,-0.41259766,0.86468506,-0.1272583,-9.953125,6.953125,-3.8125
1635452229463,-0.41870117,0.86053467,-0.13409424,-10.765625,5.328125,-1.875
1635452229501,-0.4399414,0.8788452,-0.14678955,-11.25,4.765625,0.921875
1635452229539,-0.4345703,0.90618896,-0.14727783,-6.6875,4.40625,0.703125
1635452229575,-0.39013672,0.89715576,-0.14678955,-4.0625,1.421875,-1.125
1635452229612,-0.36816406,0.8969116,-0.16705322,-6.671875,-2.890625,-3.296875
1635452229650,-0.37719727,0.9711304,-0.21807861,-10.015625,-4.453125,-1.0
1635452229689,-0.3708496,1.0368042,-0.20367432,-1.09375,0.890625,0.328125
1635452229725,-0.34692383,0.95233154,-0.22930908,4.890625,-2.90625,-2.3125
1635452229764,-0.32641602,0.9281616,-0.19537354,4.734375,-4.125,-1.75
1635452229805,-0.33544922,0.8505249,-0.20074463,-0.65625,-1.234375,-0.21875
1635452229857,-0.34594727,0.87323,-0.21807861,-2.53125,0.265625,4.671875
1635452229894,-0.34350586,0.9423218,-0.20050049,6.625,6.109375,8.3125
1635452229932,-0.26416016,0.9332886,-0.22149658,12.140625,3.65625,5.296875
1635452229972,-0.24145508,0.9411011,-0.24615479,9.0625,-1.53125,4.84375
1635452230006,-0.27734375,0.89398193,-0.25421143,5.15625,3.796875,9.859375
1635452230045,-0.32128906,0.7887573,-0.2612915,-5.796875,1.671875,16.984375
1635452230081,-0.32348633,0.9389038,-0.21588135,19.90625,8.609375,15.015625
1635452230118,-0.1508789,0.80096436,-0.053771973,19.15625,11.8125,11.328125
1635452230156,-0.38427734,0.9196167,-0.14605713,11.375,-5.921875,18.09375
1635452230193,-0.7194824,1.1898804,-0.20709229,26.75,-15.046875,16.109375
1635452230288,-1.2619629,1.3156128,-0.016418457,14.03125,8.265625,8.59375
1635452230291,-1.0397949,0.9567261,-0.23199463,-4.375,16.859375,-6.5
1635452230326,-0.66015625,0.7225952,-0.09698486,18.515625,23.1875,-0.84375
1635452230362,-0.6489258,0.50653076,0.09051514,33.34375,22.4375,5.109375
1635452230399,-0.611084,0.40447998,0.12640381,17.40625,0.59375,-2.46875
1635452230436,-0.62841797,0.54608154,0.019470215,-10.15625,-7.640625,-7.140625
1635452230474,-0.5744629,0.7460327,-0.08331299,2.734375,-1.875,-1.40625
1635452230513,-0.59936523,0.75286865,-0.046203613,10.75,0.90625,0.9375
1635452230550,-0.6191406,0.76678467,0.009216309,3.90625,-6.625,-2.015625
1635452230586,-0.62402344,0.82196045,-0.00982666,0.671875,-10.8125,-5.6875
1635452230624,-0.6245117,0.9086304,-0.04937744,4.21875,-9.28125,-3.625
1635452230680,-0.59350586,0.87664795,-0.04522705,2.125,-8.390625,-3.78125
1635452230718,-0.55322266,0.760437,-0.031555176,3.4375,-11.5,-8.609375
1635452230757,-0.5996094,0.75213623,-0.02154541,6.40625,-15.609375,-6.984375
1635452230794,-0.6503906,0.7885132,-0.0012817383,5.0,-10.53125,-0.6875
1635452230831,-0.6772461,0.8312378,-0.024719238,3.78125,-3.015625,1.671875
1635452230869,-0.6311035,0.88031006,-0.0256958,4.703125,-0.296875,-3.625
1635452230906,-0.5756836,0.8432007,-0.010070801,3.703125,-1.359375,-7.03125
1635452230943,-0.52197266,0.8331909,0.0065307617,4.03125,-0.546875,-6.28125
1635452230982,-0.5209961,0.8251343,0.012145996,9.671875,-1.140625,-4.609375
1635452231018,-0.55688477,0.8300171,0.021911621,5.734375,-2.40625,-3.125
1635452231075,-0.5732422,0.8602905,0.017028809,2.875,-0.796875,-5.5625
1635452231112,-0.5871582,0.8895874,0.015075684,0.703125,0.078125,-6.65625
1635452231150,-0.55493164,0.9171753,-0.014709473,-1.734375,3.0625,-7.828125
1635452231187,-0.5251465,0.8751831,-0.0025024414,-0.421875,2.90625,-9.328125
1635452231224,-0.51049805,0.86517334,0.010192871,0.09375,3.796875,-5.34375
1635452231262,-0.52441406,0.8812866,0.0028686523,-3.109375,11.125,-0.15625
1635452231300,-0.4814453,0.8973999,-0.053771973,-6.0,12.390625,-2.28125
1635452231337,-0.44555664,0.85809326,-0.059387207,-5.75,9.0625,-6.109375
1635452231375,-0.39501953,0.8720093,-0.06109619,-9.03125,5.546875,-5.3125
1635452231431,-0.4086914,0.8654175,-0.12554932,-11.8125,4.359375,-1.5625
1635452231471,-0.47021484,0.89105225,-0.12677002,-8.46875,5.46875,1.21875
1635452231506,-0.46655273,0.89715576,-0.09088135,-6.59375,6.6875,-1.875
1635452231543,-0.43139648,0.8656616,-0.08380127,-8.90625,8.515625,-3.859375
1635452231581,-0.39941406,0.87542725,-0.1428833,-12.34375,5.140625,-3.859375
1635452231619,-0.37475586,0.8746948,-0.1609497,-4.328125,4.5,-3.28125
1635452231655,-0.31884766,0.885437,-0.093566895,2.578125,0.578125,-1.734375
1635452231693,-0.3408203,1.0551147,-0.070617676,-4.265625,-3.546875,2.234375
1635452231731,-0.4267578,1.0734253,-0.14898682,-12.78125,3.453125,0.3125
1635452231769,-0.4375,0.918396,-0.23321533,-7.984375,-4.125,-4.78125
1635452231806,-0.39501953,0.899353,-0.14996338,5.84375,-3.359375,-3.15625
1635452231862,-0.30444336,0.8029175,-0.13409424,0.40625,5.703125,1.71875
1635452231900,-0.28027344,0.8512573,-0.1350708,-5.140625,0.484375,6.046875
1635452231937,-0.31103516,0.9598999,-0.13311768,-2.890625,1.5,6.03125
1635452231974,-0.31176758,0.9381714,-0.13702393,0.9375,6.4375,1.6875
1635452232013,-0.21801758,0.9064331,-0.18463135,5.421875,-1.328125,0.1875
1635452232050,-0.1940918,0.9616089,-0.17755127,5.34375,-4.0,4.171875
1635452232087,-0.27197266,0.9435425,-0.17584229,7.546875,-0.859375,9.40625
1635452232124,-0.32763672,0.9406128,-0.09820557,12.734375,1.671875,8.765625
1635452232162,-0.34985352,0.87371826,-0.2029419,7.875,4.25,9.265625
1635452232200,-0.44726562,1.0949097,-0.27886963,13.71875,-9.125,16.453125
1635452232238,-0.6730957,1.194519,-0.3262329,28.203125,-16.46875,14.921875
1635452232293,-1.0842285,1.1532593,0.010437012,13.75,8.53125,7.34375
1635452232331,-0.87841797,0.7518921,-0.22515869,-22.75,8.71875,6.4375
1635452232369,-0.7211914,0.68792725,-0.20855713,3.5,15.390625,12.640625
1635452232413,-0.6801758,0.52386475,0.07196045,35.171875,15.34375,19.4375
1635452232443,-0.5402832,0.5055542,0.14959717,24.921875,14.109375,5.1875
1635452232481,-0.53808594,0.6141968,-0.09576416,-17.984375,-14.5625,-14.09375
1635452232519,-0.61987305,0.9022827,-0.19805908,-14.125,-14.453125,-5.0
1635452232556,-0.6828613,0.7301636,-0.15802002,16.484375,11.484375,8.59375
1635452232594,-0.69555664,0.6442261,0.024597168,15.875,4.4375,7.921875
1635452232632,-0.62158203,0.7531128,-0.015930176,0.484375,-6.5,-6.390625
1635452232687,-0.6647949,0.8847046,-0.09991455,-2.640625,-6.53125,-12.25
1635452232725,-0.5756836,0.84417725,-0.07476807,2.078125,-0.546875,-7.359375
1635452232764,-0.54296875,0.74261475,0.04534912,12.34375,0.6875,-6.125
1635452232800,-0.50512695,0.76190186,0.010925293,13.234375,-3.9375,-8.015625
1635452232837,-0.5500488,0.82562256,-0.045959473,2.625,-8.234375,-9.203125
1635452232875,-0.63793945,0.918396,-0.050842285,10.515625,-6.90625,-4.09375
1635452232913,-0.62719727,0.8768921,-0.014953613,12.546875,-1.40625,-6.75
1635452232950,-0.5830078,0.7953491,-0.04034424,9.359375,-4.59375,-7.03125
1635452232987,-0.57421875,0.78118896,-0.030578613,3.484375,-8.6875,-2.96875
1635452233027,-0.6159668,0.81414795,-0.03717041,2.46875,-5.515625,-0.4375
1635452233081,-0.64208984,0.83270264,-7.9345703E-4,0.375,-1.375,-3.296875
1635452233118,-0.5632324,0.8148804,-0.015930176,0.15625,2.421875,-4.640625
1635452233155,-0.5649414,0.80999756,-0.038879395,1.609375,4.578125,-4.25
1635452233193,-0.52246094,0.8353882,-0.002746582,1.28125,-0.28125,-6.09375
1635452233232,-0.513916,0.8915405,-0.00982666,-0.8125,0.015625,-5.640625
1635452233268,-0.5422363,0.9020386,-0.020080566,-0.9375,0.265625,-5.125
1635452233305,-0.5444336,0.91619873,-0.039367676,-2.03125,-1.703125,-4.703125
1635452233343,-0.545166,0.8602905,-0.057678223,-3.859375,-1.796875,-3.625
1635452233381,-0.56640625,0.8534546,-0.019836426,-1.0625,2.96875,1.15625
1635452233419,-0.5600586,0.8078003,-0.019348145,-1.828125,7.640625,0.25
1635452233456,-0.5058594,0.8517456,-0.04864502,-6.953125,8.0625,0.0
1635452233512,-0.45751953,0.8773804,-0.09820557,-10.734375,7.984375,0.65625
1635452233550,-0.45581055,0.8602905,-0.10479736,-8.921875,7.046875,1.625
1635452233587,-0.43920898,0.85980225,-0.089660645,-4.40625,4.84375,2.21875
1635452233624,-0.39770508,0.8703003,-0.07476807,-1.109375,-0.09375,0.078125
1635452233662,-0.36865234,0.87957764,-0.09991455,-9.609375,-4.921875,-0.140625
1635452233700,-0.38793945,0.99920654,-0.0869751,-11.546875,-4.859375,0.546875
1635452233737,-0.42211914,1.2059937,-0.13092041,1.359375,3.25,1.09375
1635452233774,-0.4387207,1.0275269,-0.16729736,6.28125,6.125,-6.15625
1635452233812,-0.35351562,0.8632202,-0.057434082,7.9375,2.21875,-13.5625
1635452233851,-0.26586914,0.72332764,-0.03717041,-5.359375,-3.75,-13.6875
1635452233906,-0.34277344,0.75775146,-0.097229004,-11.21875,-2.625,-0.109375
1635452233943,-0.4104004,0.9347534,-0.19073486,-12.390625,2.125,10.5
1635452233981,-0.4699707,1.1000366,-0.18682861,4.03125,6.71875,3.453125
1635452234018,-0.41235352,0.95062256,-0.11480713,14.71875,9.765625,-2.484375
1635452234056,-0.31469727,0.91033936,-0.10015869,5.203125,8.5625,-4.078125
1635452234093,-0.22851562,0.90448,-0.0881958,6.984375,7.140625,-0.640625
1635452234131,-0.25634766,0.88323975,-0.06744385,10.75,8.4375,7.65625
1635452234172,-0.2890625,0.8751831,-0.035217285,5.765625,6.59375,11.390625
1635452234206,-0.3215332,0.92108154,-0.089904785,2.640625,4.03125,10.28125
1635452234302,-0.3935547,0.95599365,-0.15240479,6.375,6.140625,13.40625
1635452234305,-0.48364258,1.0187378,-0.19927979,15.46875,-2.390625,18.0
1635452234337,-0.68896484,1.2150269,0.034362793,30.84375,-10.453125,11.5
1635452234375,-0.88012695,1.1017456,0.04901123,-10.046875,10.296875,9.359375
1635452234412,-0.765625,0.9923706,-0.33599854,-14.1875,5.390625,11.46875
1635452234469,-0.7792969,0.66693115,-0.06427002,20.46875,7.03125,8.765625
1635452234487,-0.7236328,0.51239014,0.17645264,19.140625,13.71875,7.375
1635452234524,-0.5563965,0.5133667,0.06756592,-4.140625,9.609375,-1.609375
1635452234562,-0.52441406,0.6317749,-0.1404419,-11.1875,-11.21875,-4.96875
1635452234600,-0.72094727,0.836853,-0.02911377,2.203125,-3.734375,8.46875
1635452234639,-0.8117676,0.86395264,0.04119873,16.53125,14.9375,8.203125
1635452234674,-0.66552734,0.73773193,0.0033569336,7.4375,3.296875,-8.578125
1635452234731,-0.5612793,0.7592163,0.026306152,-0.859375,-9.21875,-9.609375
1635452234768,-0.55810547,0.74139404,0.007751465,8.765625,2.359375,0.515625
1635452234806,-0.65966797,0.6688843,0.0018920898,6.78125,-2.109375,7.484375
1635452234843,-0.75927734,0.7992554,0.05706787,5.109375,-1.0,4.0625
1635452234881,-0.68310547,0.8278198,0.001159668,4.96875,0.515625,-4.453125
1635452234918,-0.60180664,0.7807007,-0.043518066,-5.0,-5.109375,-5.84375
1635452234956,-0.6274414,0.7616577,0.004333496,3.546875,-2.015625,-0.78125
1635452234993,-0.6464844,0.760437,0.04510498,5.5625,0.921875,-0.359375
1635452235031,-0.6538086,0.7863159,0.005554199,2.140625,0.1875,-4.75
1635452235068,-0.6245117,0.79730225,0.028015137,3.75,0.0625,-7.90625
1635452235124,-0.6230469,0.7887573,0.019470215,-2.828125,1.71875,-6.671875
1635452235162,-0.6279297,0.81951904,0.016784668,0.171875,3.984375,-5.3125
1635452235204,-0.59887695,0.80511475,0.050231934,2.578125,0.78125,-8.609375
1635452235237,-0.5612793,0.8173218,0.03729248,1.203125,-0.984375,-10.0
1635452235275,-0.5349121,0.840271,0.027038574,1.171875,-1.90625,-8.5625
1635452235312,-0.5539551,0.87323,0.035095215,-0.453125,-4.3125,-8.265625
1635452235349,-0.5842285,0.86346436,0.03656006,-0.15625,-4.21875,-7.1875
1635452235387,-0.5866699,0.9098511,0.012878418,1.296875,-0.859375,-4.640625
1635452235424,-0.5678711,0.888855,-0.031555176,-1.828125,-0.6875,-4.796875
1635452235462,-0.595459,0.84661865,-0.034729004,-3.828125,0.453125,-3.546875
1635452235519,-0.5969238,0.8121948,0.00579834,-2.671875,6.15625,-0.3125
1635452235556,-0.51464844,0.8331909,0.007019043,-0.171875,11.5625,-4.8125
1635452235594,-0.40405273,0.8566284,-0.077941895,-11.1875,4.375,-10.8125
1635452235631,-0.4296875,0.90057373,-0.082336426,-12.96875,-1.75,-6.546875
1635452235668,-0.48242188,0.9208374,-0.046691895,-6.234375,5.03125,-0.546875
1635452235706,-0.49438477,0.88616943,-0.08306885,-10.109375,5.703125,-3.203125
1635452235743,-0.4802246,0.83880615,-0.11529541,-10.40625,2.09375,-5.953125
1635452235781,-0.47631836,0.8571167,-0.089416504,-3.671875,4.90625,-3.359375
1635452235818,-0.4189453,0.8500366,-0.11383057,-7.859375,4.671875,-5.453125
1635452235856,-0.41992188,0.8876343,-0.15582275,-11.75,-0.75,-5.484375
1635452235894,-0.4074707,0.9450073,-0.15142822,-6.5625,2.875,-2.3125
1635452235950,-0.4177246,1.0092163,-0.117492676,-0.859375,4.671875,-1.390625
1635452235987,-0.3774414,0.98358154,-0.14752197,-6.109375,2.453125,-4.953125
1635452236025,-0.3618164,0.92181396,-0.14019775,-2.671875,3.734375,-3.734375
1635452236061,-0.35131836,0.9164429,-0.13238525,-2.90625,4.953125,-2.765625
1635452236099,-0.35888672,0.84051514,-0.1428833,-7.40625,2.421875,-0.25
1635452236137,-0.40942383,0.8942261,-0.14752197,-8.4375,4.078125,4.546875
1635452236175,-0.41992188,0.9125366,-0.15753174,-5.625,8.1875,4.75
1635452236212,-0.38378906,0.9425659,-0.17047119,2.671875,8.203125,5.21875
1635452236249,-0.31298828,0.91619873,-0.13555908,4.0625,9.015625,5.71875
1635452236287,-0.31518555,0.94329834,-0.1362915,0.734375,6.046875,6.28125
1635452236344,-0.32202148,0.9476929,-0.13922119,7.453125,7.84375,7.390625
1635452236381,-0.27612305,0.9191284,-0.10772705,11.234375,5.578125,6.140625
1635452236418,-0.2788086,0.87713623,-0.086242676,8.1875,4.296875,6.984375
1635452236456,-0.3696289,0.9098511,-0.17095947,2.171875,4.59375,13.734375
1635452236493,-0.50439453,0.9996948,-0.2432251,13.75,-1.875,15.71875
1635452236531,-0.69921875,1.0355835,-0.069885254,28.28125,-10.484375,11.921875
1635452236568,-0.8952637,0.9723511,-0.0647583,3.65625,2.71875,10.03125
1635452236606,-0.8991699,1.0795288,-0.22149658,-9.40625,5.234375,7.84375
1635452236643,-0.6599121,0.81048584,-0.15924072,8.953125,7.609375,3.0
1635452236681,-0.61206055,0.48651123,0.0060424805,22.296875,16.265625,9.09375
1635452236775,-0.58325195,0.45062256,0.121032715,17.296875,8.515625,6.515625
1635452236778,-0.59643555,0.59539795,-0.03717041,-6.5,-9.59375,1.15625
1635452236812,-0.734375,0.87420654,-0.093566895,-4.375,-7.953125,4.875
1635452236849,-0.75024414,0.9369507,-0.11138916,19.96875,10.296875,5.3125
1635452236887,-0.6682129,0.6430054,-0.06719971,4.46875,1.28125,-5.03125
1635452236925,-0.6694336,0.60809326,0.051208496,7.890625,-8.34375,-3.578125
1635452236964,-0.6303711,0.68182373,0.026794434,8.65625,-1.28125,0.3125
1635452236999,-0.61694336,0.80462646,-0.06036377,1.328125,-3.796875,0.46875
1635452237036,-0.6755371,0.8522339,-0.069885254,-0.546875,-3.4375,-3.453125
1635452237075,-0.70703125,0.81414795,0.003112793,6.71875,-0.109375,-6.953125
1635452237131,-0.64746094,0.7579956,-0.012756348,-0.25,-2.953125,-9.421875
1635452237169,-0.6135254,0.7848511,-0.020324707,3.75,-1.3125,-5.390625
1635452237206,-0.5944824,0.8239136,-0.0012817383,7.09375,1.453125,-3.46875
1635452237244,-0.5957031,0.8209839,-0.014221191,2.984375,-0.6875,-7.328125
1635452237281,-0.6147461,0.80340576,-0.010314941,2.5625,-1.65625,-7.25
1635452237318,-0.61938477,0.8024292,-0.0032348633,3.03125,1.0625,-4.9375
1635452237356,-0.6208496,0.80584717,0.0014038086,1.234375,2.09375,-4.125
1635452237393,-0.58447266,0.822937,0.002380371,1.03125,1.140625,-6.25
1635452237431,-0.5578613,0.80755615,0.019714355,2.671875,-0.1875,-7.4375
1635452237468,-0.55249023,0.82196045,0.02923584,3.625,-1.0625,-6.625
1635452237505,-0.54711914,0.83465576,0.024597168,1.953125,-0.109375,-6.375
1635452237581,-0.5769043,0.8695679,0.012390137,0.515625,-1.90625,-6.109375
1635452237601,-0.5710449,0.92474365,0.0048217773,1.125,-0.03125,-5.375
1635452237636,-0.54907227,0.9032593,-0.010314941,0.96875,0.109375,-7.015625
1635452237674,-0.5410156,0.84906006,-0.016662598,1.875,-1.984375,-6.5625
1635452237713,-0.56225586,0.8217163,0.0040893555,1.5,0.171875,-2.4375
1635452237750,-0.53125,0.857605,0.009216309,2.640625,5.140625,-2.921875
1635452237790,-0.46264648,0.87908936,-0.04815674,-5.609375,0.765625,-7.140625
1635452237825,-0.44580078,0.89520264,-0.09869385,-11.171875,-3.59375,-6.765625
1635452237862,-0.4753418,0.8654175,-0.10064697,-6.765625,-1.0,-1.53125
1635452237900,-0.49169922,0.8480835,-0.07574463,-2.796875,2.0625,0.046875
1635452237956,-0.47827148,0.8446655,-0.0960083,-7.5625,1.265625,-4.3125
1635452237993,-0.4597168,0.8744507,-0.13824463,-8.546875,-0.328125,-5.171875
1635452238032,-0.4025879,0.89837646,-0.15899658,-7.640625,0.890625,-3.4375
1635452238068,-0.39013672,0.8590698,-0.19146729,-9.796875,-0.03125,-1.578125
1635452238106,-0.40405273,0.88983154,-0.12896729,-3.359375,-2.578125,0.984375
1635452238143,-0.40820312,0.9972534,-0.09674072,-1.734375,-3.65625,-0.640625
1635452238181,-0.40942383,1.0612183,-0.17510986,-6.8125,-0.5,-2.734375
1635452238219,-0.4025879,0.9660034,-0.17999268,1.4375,5.25,-4.796875
1635452238256,-0.35766602,0.82562256,-0.1116333,1.09375,2.28125,-5.828125
1635452238293,-0.359375,0.7977905,-0.12359619,-8.265625,0.125,-1.671875
1635452238349,-0.40429688,0.89886475,-0.1675415,-9.53125,6.140625,5.484375
1635452238388,-0.42993164,0.9364624,-0.1741333,-2.6875,10.046875,5.6875
1635452238425,-0.4189453,0.9557495,-0.15289307,5.578125,12.234375,3.015625
1635452238463,-0.36083984,0.9098511,-0.097717285,5.390625,10.421875,0.90625
1635452238500,-0.33203125,0.92181396,-0.12554932,-0.453125,12.125,2.53125
1635452238537,-0.34985352,0.91741943,-0.10675049,2.46875,13.421875,4.578125
1635452238575,-0.3293457,0.9332886,-0.124572754,5.15625,10.328125,3.15625
1635452238613,-0.27856445,0.9279175,-0.09698486,9.359375,10.5625,4.96875
1635452238650,-0.27172852,0.9069214,-0.12261963,6.15625,12.375,10.28125
1635452238686,-0.40478516,0.89837646,-0.1560669,-4.046875,9.921875,15.96875
1635452238724,-0.5515137,1.001648,-0.16290283,7.5625,6.03125,15.3125
1635452238781,-0.6027832,1.1432495,-0.10821533,12.25,-7.625,8.5625
1635452238818,-0.7397461,1.0204468,-0.17852783,0.59375,2.765625,3.484375
1635452238875,-0.9033203,0.94329834,-0.12994385,-2.4375,14.234375,7.90625
1635452238893,-0.748291,0.6564331,-0.07330322,12.78125,15.484375,12.75
1635452238931,-0.6809082,0.6486206,-0.003479004,12.96875,14.765625,14.671875
1635452238968,-0.6035156,0.62176514,0.011413574,15.25,6.078125,3.6875
1635452239006,-0.56225586,0.6884155,-0.036193848,1.046875,-9.875,-1.03125
1635452239044,-0.66064453,0.7140503,-0.05230713,2.65625,-5.40625,2.5
1635452239081,-0.74194336,0.7001343,0.012878418,14.125,0.9375,4.625
1635452239118,-0.71484375,0.71502686,-0.01373291,7.4375,0.390625,0.375
1635452239175,-0.7128906,0.76239014,-0.03741455,4.65625,-5.734375,-3.328125
1635452239212,-0.6633301,0.7938843,0.0211792,9.953125,-3.546875,-4.34375
1635452239268,-0.5974121,0.71502686,-0.028869629,8.75,-3.28125,-5.90625
1635452239305,-0.6501465,0.7172241,0.021911621,5.59375,-8.015625,-0.53125
1635452239325,-0.68359375,0.75994873,-0.005432129,0.4375,-2.171875,-0.28125
1635452239362,-0.7175293,0.8175659,0.008728027,5.25,-1.984375,-3.015625
1635452239400,-0.6542969,0.7914429,0.0021362305,2.015625,-0.984375,-5.5625
1635452239437,-0.62353516,0.8007202,0.0060424805,3.625,0.65625,-5.78125
1635452239475,-0.6230469,0.78460693,0.0065307617,0.578125,-0.59375,-5.359375
1635452239512,-0.6345215,0.8041382,0.026550293,3.578125,0.5625,-5.375
1635452239569,-0.5629883,0.8305054,0.020446777,2.4375,-1.25,-8.171875
1635452239606,-0.5661621,0.83148193,-0.015930176,-1.421875,-3.4375,-8.78125
1635452239646,-0.59277344,0.80755615,-0.013244629,1.65625,-2.984375,-5.515625
1635452239681,-0.6594238,0.8082886,0.00970459,0.96875,0.21875,-2.515625
1635452239720,-0.6538086,0.7970581,0.026062012,-0.34375,2.46875,-3.859375
1635452239756,-0.5998535,0.8192749,0.035339355,-1.484375,3.03125,-7.859375
1635452239794,-0.5258789,0.8505249,-0.012023926,-1.953125,2.734375,-8.625
1635452239832,-0.47070312,0.83709717,0.0079956055,1.359375,-1.265625,-10.421875
1635452239870,-0.5161133,0.81292725,0.022155762,-0.1875,-5.4375,-8.546875
1635452239906,-0.60668945,0.9398804,0.013122559,-3.140625,-0.140625,-2.53125
1635452239944,-0.6230469,1.0282593,-0.13165283,-12.953125,2.390625,-2.390625
1635452240001,-0.5617676,0.88983154,-0.11383057,-1.578125,5.546875,-6.203125
1635452240040,-0.39819336,0.71698,-0.09161377,3.53125,4.625,-11.234375
1635452240075,-0.36938477,0.71087646,-0.08062744,-5.890625,-4.96875,-4.984375
1635452240112,-0.43481445,0.8119507,-0.07598877,-15.28125,-4.15625,3.375
1635452240150,-0.46020508,0.9816284,-0.116760254,-12.078125,0.703125,4.703125
1635452240188,-0.4284668,1.1810913,-0.22711182,-12.40625,-6.546875,-3.203125
1635452240225,-0.44555664,1.0387573,-0.18121338,3.625,-3.4375,-6.46875
1635452240264,-0.42260742,0.85369873,-0.0413208,12.65625,4.796875,-5.703125
1635452240301,-0.3503418,0.77948,-0.05255127,-2.5625,0.140625,-7.453125
1635452240337,-0.34472656,0.8222046,-0.11383057,-11.546875,-3.546875,-2.578125
1635452240394,-0.40405273,0.86590576,-0.13604736,-9.40625,3.421875,5.4375
1635452240432,-0.48461914,0.993103,-0.1897583,-5.296875,3.921875,4.34375
1635452240469,-0.46484375,1.0253296,-0.16607666,8.1875,6.9375,-3.109375
1635452240506,-0.3474121,0.91619873,-0.10870361,10.515625,8.15625,-4.4375
1635452240544,-0.32543945,0.8937378,-0.07110596,3.9375,9.546875,-0.421875
1635452240582,-0.32348633,0.8949585,-0.10235596,2.1875,12.03125,3.5625
1635452240620,-0.3347168,0.90911865,-0.112854004,3.84375,8.53125,4.84375
1635452240656,-0.32543945,0.9293823,-0.08673096,7.25,7.90625,5.375
1635452240693,-0.32202148,0.91448975,-0.09185791,3.25,7.203125,6.65625
1635452240731,-0.3408203,0.8961792,-0.055725098,6.4375,9.546875,8.546875
1635452240790,-0.4038086,0.91571045,-0.13970947,6.296875,5.953125,13.078125
1635452240826,-0.6376953,1.1329956,-0.23614502,13.375,-5.625,16.65625
1635452240863,-0.78222656,1.1520386,0.03363037,44.5625,3.921875,6.890625
1635452240904,-0.734375,0.902771,-0.020568848,-13.828125,6.03125,9.109375
1635452240936,-0.763916,0.9713745,-0.26837158,-19.890625,8.6875,19.140625
1635452240974,-0.72436523,0.6725464,-0.019836426,35.09375,20.46875,11.59375
1635452241013,-0.56469727,0.4171753,0.16864014,33.09375,11.796875,3.359375
1635452241051,-0.58154297,0.48797607,0.08392334,-13.09375,-5.59375,-2.21875
1635452241089,-0.67749023,0.76776123,-0.030578613,-15.828125,-9.515625,4.640625
1635452241125,-0.7705078,0.94158936,-0.09039307,7.203125,9.421875,7.671875
1635452241162,-0.70947266,0.791687,0.0028686523,13.96875,9.953125,3.484375
1635452241219,-0.6130371,0.6557007,0.046569824,6.625,-1.765625,-1.40625
1635452241256,-0.6669922,0.7123413,0.093444824,3.09375,-7.328125,-1.8125
1635452241293,-0.6628418,0.78289795,-0.0064086914,0.140625,0.59375,1.78125
1635452241331,-0.6594238,0.80145264,0.0072631836,9.96875,4.90625,0.5625
1635452241368,-0.64575195,0.6925659,0.06781006,2.234375,-1.296875,-2.4375
1635452241406,-0.6826172,0.74090576,0.06365967,0.4375,-3.578125,-2.953125
1635452241445,-0.6591797,0.79681396,0.036071777,5.625,-1.421875,-5.78125
1635452241481,-0.6464844,0.7897339,0.015563965,2.5625,-0.390625,-7.75
1635452241518,-0.6496582,0.77459717,0.049743652,2.25,1.625,-7.8125
1635452241556,-0.63549805,0.79437256,0.06072998,5.59375,3.03125,-6.765625
1635452241612,-0.60839844,0.7958374,0.014587402,-0.125,0.515625,-9.0625
1635452241649,-0.59106445,0.80218506,0.0368042,-0.375,-2.453125,-9.703125
1635452241688,-0.5991211,0.7958374,0.046813965,1.421875,-1.25,-7.875
1635452241724,-0.6130371,0.8134155,0.034362793,-0.125,-2.609375,-8.359375
1635452241762,-0.6347656,0.8373413,0.038513184,-2.359375,-2.9375,-6.265625
1635452241799,-0.6081543,0.8578491,0.040222168,3.546875,5.03125,-7.359375
1635452241837,-0.55126953,0.8287964,0.030212402,1.046875,0.609375,-8.84375
1635452241874,-0.51416016,0.82562256,0.05657959,-1.734375,-2.078125,-8.5625
1635452241912,-0.49682617,0.840271,0.05267334,-1.265625,-1.484375,-7.328125
1635452241950,-0.5378418,0.8607788,0.036071777,-3.59375,-4.0,-4.859375
1635452242006,-0.5690918,0.9574585,0.058044434,-1.234375,0.171875,-3.796875
1635452242043,-0.5786133,0.94866943,-0.025939941,-6.34375,0.4375,-3.40625
1635452242081,-0.59594727,0.91522217,-0.0076293945,-5.34375,4.75,-1.9375
1635452242118,-0.5187988,0.7982788,0.0065307617,-2.609375,10.140625,-7.765625
1635452242156,-0.43139648,0.743103,0.010192871,-4.0625,1.703125,-8.15625
1635452242194,-0.42993164,0.85150146,-0.03302002,-9.515625,2.34375,-1.921875
1635452242231,-0.45629883,0.9032593,-0.11578369,-12.328125,7.1875,2.0
1635452242269,-0.49023438,0.869812,-0.11627197,-13.28125,5.5625,1.90625
1635452242307,-0.45043945,0.82977295,-0.030822754,-5.25,4.46875,-0.75
1635452242344,-0.32299805,0.9335327,-0.06085205,-5.171875,-1.171875,-0.734375
1635452242381,-0.3815918,1.1517944,-0.15142822,-10.609375,-6.640625,-2.203125
1635452242438,-0.4580078,1.086853,-0.14556885,-2.25,3.421875,-4.84375
1635452242476,-0.45654297,0.90179443,-0.046691895,4.171875,6.90625,-10.234375
1635452242512,-0.3322754,0.8060913,-0.08380127,-2.90625,2.140625,-11.234375
1635452242552,-0.34033203,0.80633545,-0.14654541,-9.4375,2.21875,0.546875
1635452242589,-0.38061523,0.9220581,-0.10870361,-5.453125,9.484375,10.703125
1635452242625,-0.41064453,0.9213257,-0.09844971,-7.671875,9.203125,4.671875
1635452242661,-0.37475586,0.90130615,-0.13946533,-0.6875,4.546875,3.59375
1635452242700,-0.3461914,0.9281616,-0.14923096,1.765625,10.578125,9.46875
1635452242737,-0.3474121,0.9105835,-0.12994385,1.21875,11.734375,9.421875
1635452242776,-0.34350586,0.982605,-0.11114502,6.0,6.703125,6.125
1635452242831,-0.25805664,0.94158936,-0.07965088,12.765625,7.203125,4.359375
1635452242869,-0.28955078,0.8978882,-0.07501221,9.828125,6.203125,7.265625
1635452242906,-0.41455078,0.9022827,-0.12872314,5.796875,4.71875,15.828125
1635452242945,-0.63183594,1.038269,-0.12799072,23.171875,-3.25,18.921875
1635452242982,-0.90625,1.1610718,0.016052246,19.6875,3.734375,16.28125
1635452243021,-1.1037598,1.1439819,-0.073791504,3.40625,22.296875,8.140625
1635452243056,-0.69311523,0.8673706,-0.049621582,-1.078125,19.359375,0.59375
1635452243094,-0.6057129,0.4960327,0.11517334,14.203125,6.046875,-4.515625
1635452243131,-0.59033203,0.4442749,0.1437378,20.09375,-0.65625,2.09375
1635452243171,-0.57714844,0.527771,0.061950684,-5.03125,-0.234375,7.25
1635452243225,-0.654541,0.838562,-0.030822754,-0.484375,-7.5,4.671875
1635452243263,-0.7019043,0.9244995,-0.11871338,5.484375,-0.9375,-0.828125
1635452243300,-0.73535156,0.6625366,-0.010070801,7.28125,-1.015625,-5.25
1635452243337,-0.6933594,0.6010132,0.13153076,12.890625,-5.75,-4.171875
1635452243374,-0.6623535,0.74383545,0.08441162,8.921875,-5.640625,-2.484375
1635452243412,-0.60424805,0.9384155,-0.0095825195,3.015625,-5.78125,0.0
1635452243450,-0.57714844,0.852478,-0.023742676,-2.84375,-5.453125,-4.953125
1635452243487,-0.6101074,0.71380615,0.031433105,2.921875,-12.9375,-5.640625
1635452243525,-0.66137695,0.7592163,0.09100342,6.234375,-16.3125,-2.90625
1635452243562,-0.6057129,0.857605,0.035339355,8.5,-13.078125,-5.265625
1635452243621,-0.57373047,0.87493896,-0.046936035,2.46875,-13.578125,-8.21875
1635452243655,-0.6118164,0.86590576,0.0053100586,8.25,-12.84375,-5.359375
1635452243694,-0.6345215,0.77874756,0.018737793,11.734375,-10.390625,-6.859375
1635452243731,-0.6152344,0.74212646,0.026306152,9.8125,-13.671875,-8.625
1635452243768,-0.6081543,0.77386475,0.0099487305,8.09375,-8.984375,-5.421875
1635452243806,-0.6203613,0.8114624,0.014343262,8.015625,-5.171875,-5.671875
1635452243844,-0.60498047,0.8239136,0.007507324,5.4375,-4.9375,-6.859375
1635452243881,-0.62597656,0.83343506,-0.0020141602,3.9375,1.4375,-4.296875
1635452243921,-0.61938477,0.8353882,0.0067749023,2.140625,4.796875,-2.90625
1635452243955,-0.59521484,0.82073975,0.02947998,1.296875,6.984375,-4.5
1635452243993,-0.56396484,0.8348999,0.035095215,0.296875,8.0625,-5.84375
1635452244049,-0.5349121,0.85272217,0.013122559,-2.15625,9.6875,-6.546875
1635452244087,-0.53393555,0.8617554,0.0026245117,-7.046875,7.609375,-9.296875
1635452244125,-0.5061035,0.854187,0.0060424805,-10.34375,5.171875,-10.5625
1635452244163,-0.48779297,0.90057373,-0.043029785,-13.5,9.015625,-6.0625
1635452244200,-0.46875,0.8864136,-0.097473145,-11.90625,11.34375,-4.40625
1635452244237,-0.49487305,0.84490967,-0.053771973,-8.21875,8.984375,-7.203125
1635452244275,-0.48413086,0.87664795,-0.01763916,-6.953125,8.703125,-8.953125
1635452244312,-0.4362793,0.90911865,-0.09625244,-10.671875,12.6875,-8.65625
1635452244351,-0.43041992,0.88568115,-0.14923096,-9.9375,13.484375,-4.875
1635452244387,-0.43896484,0.86712646,-0.11407471,-8.546875,14.390625,-1.5625
1635452244445,-0.37451172,0.9274292,-0.10089111,-0.171875,9.765625,-5.5625
1635452244480,-0.3112793,1.0189819,-0.07696533,-3.796875,1.8125,-8.984375
1635452244518,-0.33325195,1.022644,-0.12994385,-13.03125,5.984375,-6.90625
1635452244556,-0.3762207,0.9454956,-0.13458252,-10.734375,10.671875,-6.609375
1635452244594,-0.3701172,0.8817749,-0.09136963,-12.015625,8.390625,-9.046875
1635452244632,-0.3400879,0.8690796,-0.11578369,-17.328125,7.953125,-9.125
1635452244668,-0.29858398,0.85614014,-0.18902588,-18.28125,4.734375,-6.515625
1635452244707,-0.3347168,0.9540405,-0.1921997,-10.59375,8.828125,-2.3125
1635452244744,-0.32714844,0.9332886,-0.1663208,-4.734375,12.640625,-0.5
1635452244782,-0.29125977,0.9616089,-0.18902588,-6.6875,8.984375,-0.09375
1635452244839,-0.28979492,0.95965576,-0.21221924,-4.40625,7.703125,-0.1875
1635452244875,-0.28076172,0.965271,-0.21783447,-2.328125,3.046875,-0.765625
1635452244913,-0.29589844,0.9389038,-0.19317627,0.890625,4.421875,0.328125
1635452244950,-0.32348633,0.91204834,-0.15509033,3.8125,6.171875,1.828125
1635452244987,-0.29223633,0.89349365,-0.15899658,2.34375,8.109375,3.203125
1635452245025,-0.2685547,0.90448,-0.19439697,-0.1875,7.984375,5.6875
1635452245063,-0.24511719,0.9606323,-0.20928955,5.484375,6.84375,10.390625
1635452245100,-0.24121094,0.9418335,-0.1482544,13.515625,6.09375,13.890625
1635452245138,-0.30029297,0.91864014,-0.15460205,11.0625,4.515625,17.15625
1635452245178,-0.38891602,1.0287476,-0.2510376,11.265625,-6.046875,21.328125
1635452245213,-0.5161133,1.2377319,-0.269104,23.171875,-15.453125,20.71875
1635452245269,-0.75756836,1.1195679,-0.07232666,22.328125,3.328125,15.015625
1635452245307,-0.7392578,0.69036865,-0.15557861,5.078125,12.21875,7.9375
1635452245346,-0.8149414,0.65789795,-0.047912598,11.640625,4.921875,12.6875
1635452245382,-0.7739258,0.63446045,0.086364746,30.890625,20.1875,15.046875
1635452245419,-0.5732422,0.68621826,0.07098389,12.4375,9.828125,3.828125
1635452245457,-0.4741211,0.87664795,-0.0881958,-11.640625,-8.671875,-1.0625
1635452245494,-0.55493164,0.9069214,-0.08087158,6.640625,-7.4375,3.546875
1635452245532,-0.6508789,0.7340698,0.023132324,17.5625,-4.25,5.125
1635452245571,-0.6894531,0.6815796,0.06951904,16.984375,-0.078125,2.96875
1635452245607,-0.6550293,0.7855835,0.018493652,17.625,-1.625,-3.96875
1635452245663,-0.5708008,0.79486084,-0.012756348,13.171875,-6.484375,-8.5
1635452245701,-0.5383301,0.76312256,-0.012512207,6.234375,-8.4375,-3.40625
1635452245738,-0.60595703,0.74554443,0.028259277,6.5625,-13.5,-0.4375
1635452245777,-0.64501953,0.7731323,0.058044434,6.71875,-12.5625,-3.390625
1635452245813,-0.6582031,0.8209839,0.046325684,3.9375,-7.3125,-7.546875
1635452245850,-0.6142578,0.86834717,0.01776123,8.84375,-1.03125,-5.140625
1635452245888,-0.59594727,0.8751831,-0.002746582,8.578125,2.796875,-3.203125
1635452245931,-0.5998535,0.84051514,0.029724121,6.8125,-1.359375,-5.03125
1635452245962,-0.6044922,0.8095093,0.08660889,4.984375,-2.640625,-7.140625
1635452246021,-0.56347656,0.8024292,0.0602417,7.28125,-0.03125,-7.90625
1635452246059,-0.5529785,0.7821655,0.051696777,10.15625,-0.796875,-6.09375
1635452246094,-0.55493164,0.8353882,0.06536865,6.46875,-2.703125,-4.5625
1635452246132,-0.5629883,0.883728,0.06951904,2.21875,0.140625,-6.25
1635452246169,-0.5300293,0.89398193,0.070251465,3.28125,-0.171875,-6.421875
1635452246207,-0.5019531,0.86273193,0.08392334,2.65625,-1.75,-5.296875
1635452246245,-0.5571289,0.8109741,0.09051514,-3.484375,-1.828125,-2.5
1635452246282,-0.5410156,0.83880615,0.11517334,2.296875,0.515625,-3.0
1635452246319,-0.4921875,0.83392334,0.07684326,-1.375,1.46875,-6.96875
1635452246355,-0.4934082,0.8798218,0.070251465,-6.765625,-2.375,-4.15625
1635452246395,-0.5263672,0.9215698,0.053649902,-7.84375,1.15625,0.140625
1635452246432,-0.5517578,0.9179077,0.049987793,-8.734375,5.34375,-1.765625
1635452246487,-0.5246582,0.8817749,0.031921387,-9.890625,3.171875,-5.5625
1635452246524,-0.51123047,0.8654175,0.029724121,-9.921875,4.5,-4.59375
1635452246562,-0.51000977,0.9118042,-0.017150879,-13.65625,10.453125,-3.40625
1635452246600,-0.4885254,0.8834839,-0.045959473,-13.78125,11.71875,-6.703125
1635452246637,-0.4440918,0.86761475,-0.06890869,-10.234375,7.5,-7.484375
1635452246675,-0.42382812,0.89520264,-0.078186035,-11.890625,6.890625,-3.703125
1635452246712,-0.37182617,0.809021,-0.15460205,-13.15625,6.984375,-3.1875
1635452246749,-0.41625977,0.78656006,-0.082336426,-9.453125,1.296875,0.90625
1635452246787,-0.4111328,0.93499756,-0.08770752,-14.96875,4.734375,1.46875
1635452246824,-0.30395508,1.1713257,-0.21148682,-23.625,-1.734375,-5.0
1635452246881,-0.38134766,1.132019,-0.26690674,-4.078125,-1.84375,-7.125
1635452246919,-0.3881836,0.8744507,-0.105529785,8.21875,4.765625,-3.734375
1635452246956,-0.35131836,0.7235718,-0.069885254,-9.765625,5.71875,-6.5625
1635452246993,-0.2998047,0.7609253,-0.20123291,-21.34375,3.859375,-2.96875
1635452247033,-0.29589844,0.9227905,-0.20220947,-10.6875,3.921875,3.296875
1635452247068,-0.33325195,0.9940796,-0.23468018,-3.71875,10.765625,5.640625
1635452247106,-0.31323242,0.9657593,-0.22735596,1.796875,9.390625,2.328125
1635452247143,-0.24951172,0.94647217,-0.21881104,4.25,6.125,4.25
1635452247181,-0.26831055,0.8930054,-0.19024658,7.265625,8.609375,9.109375
1635452247220,-0.28686523,0.8956909,-0.16314697,3.234375,7.078125,10.1875
1635452247275,-0.2644043,0.94744873,-0.14703369,3.359375,7.015625,7.5625
1635452247312,-0.2763672,0.87542725,-0.21343994,4.671875,7.703125,11.421875
1635452247350,-0.5480957,0.9555054,-0.2341919,2.5,2.875,23.25
1635452247387,-0.90625,1.0858765,-0.36627197,20.5625,0.546875,24.6875
1635452247424,-1.1501465,1.1906128,-0.029846191,10.21875,24.25,13.609375
1635452247462,-0.72021484,0.76776123,-0.11090088,-20.109375,4.5,2.46875
1635452247500,-0.5234375,0.8461304,-0.021057129,7.734375,2.109375,6.03125
1635452247538,-0.5124512,0.605896,-0.09259033,37.046875,2.625,5.671875
1635452247574,-0.6516113,0.41619873,-0.00982666,20.4375,-0.984375,5.984375
1635452247612,-0.8041992,0.55511475,-0.04522705,-7.0,-4.109375,2.40625
1635452247649,-0.7468262,0.7440796,-0.13604736,12.546875,4.4375,-1.9375
1635452247705,-0.6958008,0.7435913,-0.11480713,16.5625,11.21875,-4.8125
1635452247746,-0.6755371,0.7177124,-0.034729004,5.90625,6.484375,-4.859375
1635452247782,-0.63671875,0.8685913,0.039001465,8.546875,2.5,-4.796875
1635452247819,-0.5708008,0.84539795,-0.06109619,6.078125,2.984375,-7.453125
1635452247856,-0.5810547,0.8065796,0.029968262,9.984375,-0.59375,-5.03125
1635452247893,-0.5407715,0.68548584,0.070251465,10.25,-1.890625,-6.46875
1635452247931,-0.5595703,0.77508545,0.044128418,6.375,-10.546875,-2.96875
1635452247969,-0.6166992,0.90618896,0.0138549805,5.671875,-9.796875,-1.484375
1635452248006,-0.60913086,0.88861084,-0.014465332,9.5625,-7.59375,-5.6875
1635452248043,-0.5769043,0.7728882,0.014831543,9.15625,-9.65625,-8.703125
1635452248101,-0.5932617,0.715271,0.007507324,5.34375,-11.375,-3.390625
1635452248140,-0.65893555,0.8036499,0.026306152,6.296875,-10.3125,1.125
1635452248175,-0.65625,0.8522339,0.021911621,4.3125,-5.140625,-4.21875
1635452248213,-0.56274414,0.84198,-3.0517578E-4,1.53125,-5.15625,-8.875
1635452248250,-0.55126953,0.8217163,0.01361084,0.5625,-4.234375,-7.171875
1635452248289,-0.57055664,0.81073,0.05340576,2.40625,-1.0,-4.1875
1635452248324,-0.5810547,0.8444214,0.048034668,1.8125,1.53125,-5.78125
1635452248362,-0.5620117,0.8800659,0.030700684,1.78125,1.3125,-8.109375
1635452248400,-0.56103516,0.90960693,0.038757324,-4.640625,3.09375,-7.328125
1635452248439,-0.5415039,0.93792725,-0.026916504,-7.390625,7.328125,-7.546875
1635452248532,-0.51123047,0.8312378,-0.015930176,-3.671875,5.734375,-7.609375
1635452248535,-0.49487305,0.809021,0.0065307617,-2.953125,8.375,-4.765625
1635452248570,-0.5473633,0.7872925,-0.026672363,-11.140625,12.4375,-3.03125
1635452248625,-0.5437012,0.9130249,-0.07574463,-14.765625,15.65625,-5.078125
1635452248647,-0.42016602,0.88812256,-0.14508057,-12.8125,15.078125,-12.65625
1635452248680,-0.37304688,0.82025146,-0.14068604,-12.921875,7.203125,-9.640625
1635452248720,-0.36572266,0.84588623,-0.061340332,-4.78125,8.0,0.1875
1635452248760,-0.34716797,0.9105835,-0.046203613,-0.6875,8.265625,2.40625
1635452248794,-0.3544922,1.0587769,-0.19805908,-17.234375,0.171875,-1.4375
1635452248831,-0.4555664,1.138855,-0.21295166,-4.0,-2.28125,-3.75
1635452248869,-0.40039062,0.92840576,-0.10870361,11.21875,1.625,-4.21875
1635452248925,-0.36450195,0.84368896,-0.09234619,-0.734375,3.609375,-2.796875
1635452248963,-0.36621094,0.82928467,-0.10064697,-11.703125,3.96875,2.171875
1635452249002,-0.4050293,0.9059448,-0.12652588,-14.234375,7.140625,4.90625
1635452249038,-0.38867188,0.9647827,-0.1416626,-6.484375,12.171875,3.6875
1635452249094,-0.32348633,0.96014404,-0.14215088,2.578125,12.546875,3.109375
1635452249113,-0.30908203,0.9208374,-0.13677979,4.015625,10.78125,4.421875
1635452249152,-0.32861328,0.8966675,-0.11895752,3.890625,11.75,5.890625
1635452249188,-0.31054688,0.89471436,-0.09429932,5.53125,11.21875,5.59375
1635452249226,-0.23339844,0.9645386,-0.06964111,9.25,9.859375,3.40625
1635452249262,-0.17675781,0.979187,-0.10089111,10.546875,4.25,1.375
1635452249319,-0.25341797,0.9718628,-0.18585205,5.75,-6.0,10.84375
1635452249356,-0.5061035,0.99920654,-0.1675415,23.015625,-8.375,17.875
1635452249398,-0.7104492,1.0160522,-0.026428223,41.09375,-11.703125,12.390625
1635452249431,-0.9970703,0.97161865,-0.07281494,0.359375,3.015625,6.328125
1635452249469,-1.0559082,1.0673218,-0.11505127,-13.75,-3.4375,6.34375
1635452249506,-0.6672363,0.78045654,-0.1116333,4.921875,12.53125,3.703125
1635452249543,-0.48608398,0.42889404,0.08270264,30.203125,11.765625,4.546875
1635452249581,-0.53808594,0.42669678,0.116882324,8.703125,-8.46875,6.484375
1635452249619,-0.7038574,0.713562,0.09906006,-4.140625,-9.234375,9.375
1635452249656,-0.7219238,0.9657593,-0.050354004,9.71875,0.859375,4.125
1635452249712,-0.63623047,0.8331909,-0.08648682,12.578125,3.59375,-5.734375
1635452249749,-0.5776367,0.6925659,0.055847168,4.984375,-6.015625,-2.53125
1635452249787,-0.6208496,0.71746826,0.06121826,1.171875,-4.3125,-1.421875
1635452249826,-0.6755371,0.7914429,0.023620605,5.421875,-7.375,-3.859375
1635452249862,-0.6257324,0.78289795,0.015075684,7.6875,-1.890625,-5.3125
1635452249899,-0.62524414,0.71380615,-0.027160645,4.21875,-2.328125,-4.953125
1635452249937,-0.6489258,0.80511475,0.023864746,2.828125,-4.296875,-3.1875
1635452249975,-0.6281738,0.8019409,0.0067749023,-0.53125,-3.859375,-3.578125
1635452250032,-0.6340332,0.87371826,0.010192871,2.265625,-4.53125,-4.03125
1635452250050,-0.5800781,0.8707886,0.043884277,7.234375,-0.890625,-7.03125
1635452250106,-0.5354004,0.8119507,-3.0517578E-4,1.375,-1.546875,-6.984375
1635452250148,-0.5510254,0.82366943,0.018737793,0.0625,-3.796875,-3.53125
1635452250181,-0.5942383,0.8241577,0.022888184,-0.734375,-3.90625,-2.796875
1635452250218,-0.55615234,0.84588623,0.022399902,0.796875,-2.578125,-7.28125
1635452250256,-0.52734375,0.8366089,0.018249512,2.5625,-5.71875,-7.625
1635452250294,-0.52685547,0.8463745,0.020690918,3.140625,-3.53125,-5.6875
1635452250331,-0.548584,0.9203491,-0.0051879883,-1.6875,-3.515625,-3.953125
1635452250368,-0.5266113,0.92645264,-0.047424316,-2.21875,-4.546875,-4.5
1635452250406,-0.5539551,0.8095093,-0.00592041,6.875,-3.96875,-2.578125
1635452250444,-0.57006836,0.7802124,0.026550293,5.484375,0.4375,-0.546875
1635452250481,-0.58154297,0.8185425,0.020690918,-3.484375,3.625,-1.984375
1635452250537,-0.5317383,0.88934326,-0.028869629,-3.546875,5.71875,-6.640625
1635452250575,-0.4650879,0.9039917,-0.05718994,-4.28125,4.625,-9.6875
1635452250612,-0.4777832,0.9047241,-0.066223145,-9.359375,2.28125,-6.046875
1635452250649,-0.4958496,0.8973999,-0.08673096,-9.296875,3.96875,-2.46875
1635452250687,-0.5041504,0.8632202,-0.09869385,-6.375,3.625,-2.28125
1635452250725,-0.52124023,0.8119507,-0.081848145,-6.40625,6.015625,-0.609375
1635452250762,-0.51782227,0.82196045,-0.043273926,-6.5,10.953125,0.234375
1635452250818,-0.47094727,0.8410034,-0.13970947,-13.84375,8.4375,-3.21875
1635452250837,-0.4494629,0.8656616,-0.18121338,-12.328125,4.90625,-3.515625
1635452250874,-0.41088867,0.84954834,-0.117492676,-3.03125,4.765625,-3.953125
1635452250931,-0.36523438,0.8422241,-0.13189697,-10.984375,2.96875,0.0625
1635452250968,-0.37817383,1.0448608,-0.21759033,-22.328125,3.0625,5.953125
1635452251006,-0.42407227,1.1347046,-0.2119751,-2.9375,6.0,1.015625
1635452251044,-0.42822266,0.9682007,-0.15460205,7.640625,3.390625,-7.328125
1635452251081,-0.36499023,0.8512573,-0.09185791,4.71875,4.671875,-8.890625
1635452251118,-0.28344727,0.822937,-0.14923096,-8.109375,0.328125,-3.125
1635452251155,-0.3581543,0.9122925,-0.18389893,-8.578125,2.359375,5.828125
1635452251195,-0.4326172,0.93426514,-0.14752197,0.921875,10.046875,8.9375
1635452251231,-0.40234375,0.96258545,-0.13165283,6.375,7.140625,1.5625
1635452251268,-0.30859375,0.9435425,-0.16314697,7.5625,3.9375,-1.953125
1635452251325,-0.2932129,0.9303589,-0.15216064,6.84375,4.0,2.0
1635452251362,-0.32763672,0.87298584,-0.13311768,6.890625,5.890625,5.3125
1635452251400,-0.30297852,0.90838623,-0.1326294,7.6875,4.5625,5.375
1635452251437,-0.28271484,0.92962646,-0.11920166,8.21875,2.78125,4.234375
1635452251475,-0.25561523,0.94451904,-0.0803833,13.0,2.140625,3.15625
1635452251513,-0.2763672,0.920105,-0.17462158,5.484375,0.0625,5.34375
1635452251549,-0.42456055,0.9891968,-0.2852173,6.65625,-7.4375,15.921875
1635452251587,-0.7145996,0.9935913,-0.08380127,32.125,-9.046875,19.015625
1635452251624,-1.0578613,1.0941772,0.11956787,22.59375,9.8125,11.671875
1635452251662,-0.90063477,1.0187378,-0.34332275,-28.78125,2.78125,5.71875
1635452251699,-0.8222656,0.8644409,-0.1765747,21.671875,15.921875,9.640625
1635452251756,-0.71606445,0.45916748,0.20452881,48.59375,25.15625,14.40625
1635452251793,-0.623291,0.41497803,0.28900146,25.0625,18.609375,7.546875
1635452251832,-0.57421875,0.6552124,0.070251465,-2.46875,-5.140625,-6.28125
1635452251869,-0.5720215,0.84368896,-0.011779785,-1.1875,-14.90625,-7.78125
1635452251906,-0.5895996,0.7885132,0.002380371,8.1875,3.75,2.671875
1635452251943,-0.6225586,0.6803589,0.019958496,5.96875,3.125,5.734375
1635452251981,-0.68237305,0.76678467,0.13861084,14.375,-11.703125,-0.484375
1635452252018,-0.6335449,0.78900146,0.06756592,8.046875,-11.921875,-5.171875
1635452252055,-0.6113281,0.8239136,-0.0029907227,4.421875,-9.40625,-3.984375
1635452252092,-0.5671387,0.7536011,0.03729248,16.0625,-6.046875,-0.5
1635452252150,-0.64404297,0.70477295,0.09954834,6.8125,-10.171875,-0.953125
1635452252187,-0.72924805,0.79681396,0.0927124,-0.515625,-14.796875,-1.765625
1635452252226,-0.6928711,0.85321045,0.04534912,8.65625,-9.0,-3.796875
1635452252281,-0.6279297,0.84832764,0.062194824,8.375,-5.703125,-6.125
1635452252300,-0.5690918,0.77630615,0.08074951,4.75,-6.953125,-9.9375
1635452252337,-0.57250977,0.7362671,0.01727295,-0.171875,-9.5625,-6.46875
1635452252393,-0.5983887,0.7897339,0.05340576,4.75,-8.9375,-1.328125
1635452252415,-0.66674805,0.7904663,0.070007324,1.875,-5.25,-5.359375
1635452252453,-0.60498047,0.7885132,0.059265137,1.0625,-8.5625,-10.3125
1635452252543,-0.5578613,0.7938843,0.06439209,3.703125,-7.96875,-11.46875
1635452252544,-0.58935547,0.8265991,0.08685303,2.734375,-5.390625,-11.609375
1635452252581,-0.55981445,0.9411011,0.031188965,-0.078125,-7.34375,-10.171875
1635452252622,-0.57373047,0.9291382,-0.07354736,-1.5,-4.640625,-6.328125
1635452252655,-0.6791992,0.9398804,-0.043762207,-7.84375,-0.796875,0.8125
1635452252693,-0.61865234,0.8554077,0.027038574,-0.765625,9.1875,-4.96875
1635452252751,-0.4404297,0.72332764,-0.014465332,3.796875,4.4375,-14.15625
1635452252769,-0.40063477,0.76483154,-0.043762207,-11.078125,-5.453125,-9.078125
1635452252805,-0.4873047,0.9052124,-0.030578613,-15.734375,6.390625,2.125
1635452252843,-0.53759766,0.94158936,-0.097717285,-8.296875,13.453125,-0.5625
1635452252881,-0.48339844,0.92474365,-0.10308838,-7.765625,5.25,-8.5
1635452252918,-0.45141602,0.8632202,-0.090148926,-11.9375,4.453125,-8.953125
1635452252975,-0.4248047,0.8290405,-0.09649658,-8.453125,8.390625,-2.671875
1635452253032,-0.41186523,0.83221436,-0.073791504,-4.25,8.75,-0.390625
1635452253050,-0.40283203,0.92181396,-0.057434082,-8.796875,4.03125,-1.140625
1635452253087,-0.35791016,1.1154175,-0.11187744,-14.015625,-0.5,-1.46875
1635452253124,-0.39624023,1.0993042,-0.21099854,-4.5,2.203125,-2.21875
1635452253162,-0.42041016,0.91864014,-0.11407471,5.828125,6.4375,-2.046875
1635452253199,-0.36572266,0.81073,-0.043518066,0.046875,6.328125,-6.75
1635452253237,-0.3112793,0.77264404,-0.14801025,-17.625,-1.21875,-5.34375
1635452253275,-0.3894043,0.91864014,-0.20123291,-13.109375,2.3125,4.59375
1635452253313,-0.45166016,0.9772339,-0.14337158,-1.078125,15.328125,8.015625
1635452253371,-0.39086914,0.9298706,-0.14337158,0.859375,12.09375,1.625
1635452253408,-0.3388672,0.9188843,-0.13800049,4.03125,8.25,-0.890625
1635452253443,-0.3251953,0.94573975,-0.09844971,3.421875,10.921875,0.65625
1635452253481,-0.30249023,0.9244995,-0.108947754,2.34375,9.359375,1.609375
1635452253518,-0.27539062,0.9381714,-0.082336426,7.703125,11.015625,3.796875
1635452253558,-0.23803711,0.89837646,-0.03765869,10.171875,10.203125,4.859375
1635452253593,-0.27246094,0.9008179,-0.11798096,2.515625,8.046875,7.09375
1635452253631,-0.4194336,0.98309326,-0.22979736,0.34375,-0.25,16.75
1635452253669,-0.75927734,1.1203003,-0.16656494,31.671875,-1.171875,16.4375
1635452253706,-0.8857422,1.045105,0.15887451,41.96875,15.1875,-5.703125
1635452253762,-0.6555176,0.83636475,-0.17559814,-29.453125,-6.9375,-9.359375
1635452253799,-0.6279297,0.9862671,-0.19927979,-3.0625,5.734375,10.265625
1635452253838,-0.6599121,0.6937866,-0.0071411133,39.21875,20.9375,24.578125
1635452253875,-0.6599121,0.48675537,0.1395874,15.5625,16.453125,21.015625
1635452253912,-0.65771484,0.6022339,0.05609131,-12.828125,-1.53125,3.453125
1635452253950,-0.63916016,0.8258667,-0.054260254,-3.890625,-9.265625,1.671875
1635452253988,-0.66674805,0.9286499,0.0016479492,13.0625,8.015625,8.84375
1635452254025,-0.6086426,0.7633667,0.0065307617,9.6875,8.96875,8.4375
1635452254062,-0.63623047,0.69744873,0.019714355,6.46875,-7.140625,-0.625
1635452254100,-0.7043457,0.71087646,0.06072998,7.75,-10.796875,-3.0
1635452254137,-0.703125,0.77923584,0.049743652,6.203125,-1.953125,2.515625
1635452254193,-0.63012695,0.774353,-0.011047363,8.15625,3.765625,1.453125
1635452254231,-0.64746094,0.7267456,0.062194824,3.46875,-3.859375,-2.28125
1635452254269,-0.6516113,0.78411865,0.105407715,3.984375,-3.6875,-6.921875
1635452254306,-0.55371094,0.80462646,0.03265381,5.09375,-1.90625,-9.078125
1635452254343,-0.55615234,0.84588623,-0.023986816,0.40625,-6.65625,-4.65625
1635452254381,-0.64624023,0.8497925,0.041931152,4.0,-6.875,-1.984375
1635452254419,-0.67211914,0.80462646,0.10394287,8.21875,-4.15625,-5.875
1635452254455,-0.6262207,0.77752686,0.054382324,4.9375,-4.4375,-8.90625
1635452254493,-0.5383301,0.805603,0.055603027,6.734375,-7.515625,-8.578125
1635452254531,-0.54125977,0.8278198,0.015808105,5.1875,-6.625,-6.375
1635452254587,-0.5588379,0.83392334,0.03729248,7.59375,-10.265625,-6.578125
1635452254625,-0.55859375,0.8290405,0.05731201,6.234375,-13.578125,-7.9375
1635452254662,-0.5644531,0.87127686,0.0289917,3.640625,-11.4375,-10.1875
1635452254699,-0.58203125,0.83587646,0.04095459,5.25,-9.8125,-9.0
1635452254737,-0.5917969,0.83465576,0.0692749,5.8125,-5.65625,-6.90625
1635452254774,-0.5541992,0.8744507,-0.0051879883,0.8125,-3.78125,-5.515625
1635452254812,-0.5913086,0.89837646,-0.06573486,-4.90625,-3.0625,-4.421875
1635452254850,-0.63916016,0.8126831,-0.06011963,-5.5625,2.203125,-1.953125
1635452254887,-0.6501465,0.7575073,0.012390137,-3.59375,9.609375,0.125
1635452254924,-0.5444336,0.8004761,0.019470215,-0.953125,15.5,-3.0
1635452255018,-0.43896484,0.8522339,-0.0491333,-12.453125,11.375,-8.078125
1635452255022,-0.44458008,0.93499756,-0.109191895,-16.859375,8.5625,-4.296875
1635452255056,-0.48120117,0.94866943,-0.085754395,-10.828125,14.59375,0.3125
1635452255096,-0.49291992,0.85736084,-0.046447754,-8.640625,10.890625,-2.859375
1635452255131,-0.47875977,0.84051514,-0.050354004,-12.28125,7.75,-4.984375
1635452255168,-0.46142578,0.86590576,-0.08355713,-10.921875,7.9375,-2.578125
1635452255207,-0.4152832,0.854187,-0.12945557,-13.375,6.03125,0.625
1635452255243,-0.3708496,0.7929077,-0.08355713,-5.359375,3.671875,0.15625
1635452255281,-0.36767578,0.8522339,0.022399902,-4.15625,-5.75,0.96875
1635452255318,-0.43945312,1.138855,-0.10406494,-24.625,-7.234375,2.765625
1635452255375,-0.47729492,1.2653198,-0.2678833,-3.9375,2.59375,-0.984375
1635452255413,-0.38989258,0.9899292,-0.1482544,21.15625,5.109375,-4.1875
1635452255449,-0.2915039,0.77459717,-0.04840088,2.296875,2.578125,-5.0
1635452255489,-0.3034668,0.76849365,-0.09307861,-10.28125,2.078125,3.421875
1635452255524,-0.36328125,0.8812866,-0.13677979,-6.015625,4.8125,12.46875
1635452255562,-0.38354492,0.9845581,-0.1609497,1.53125,5.328125,11.453125
1635452255600,-0.30566406,0.95892334,-0.16339111,12.203125,6.15625,5.984375
1635452255637,-0.26708984,0.9196167,-0.12799072,15.078125,5.296875,7.703125
1635452255675,-0.23486328,0.9047241,-0.10430908,11.234375,1.484375,6.296875
1635452255712,-0.35498047,0.91937256,-0.19781494,2.890625,-2.6875,6.796875
1635452255750,-0.50512695,0.9801636,-0.20025635,17.03125,-3.34375,15.765625
1635452255806,-0.59716797,0.93377686,-0.07281494,44.609375,-1.9375,15.484375
1635452255843,-0.857666,0.9706421,0.057556152,11.921875,-1.9375,11.234375
1635452255882,-1.1279297,1.13031,-0.16046143,-15.75,6.703125,9.328125
1635452255918,-0.8833008,0.9804077,-0.21148682,-6.328125,8.15625,2.03125
1635452255958,-0.6152344,0.49920654,0.061950684,29.140625,13.40625,-3.328125
1635452255994,-0.5114746,0.3209839,0.20916748,25.9375,5.53125,-0.828125
1635452256031,-0.52490234,0.48309326,0.1071167,-7.234375,-9.78125,0.9375
1635452256068,-0.6142578,0.86053467,-0.08355713,-4.890625,-9.625,7.03125
1635452256108,-0.79785156,0.9537964,-0.089416504,11.234375,6.125,1.203125
1635452256143,-0.7211914,0.6781616,0.032165527,11.21875,1.625,-10.265625
1635452256199,-0.6376953,0.58392334,0.038757324,4.921875,-10.75,-15.921875
1635452256237,-0.61328125,0.7223511,0.028259277,2.078125,-10.96875,-5.90625
1635452256274,-0.64086914,0.8480835,-0.020812988,2.9375,1.0,0.359375
1635452256312,-0.6274414,0.852478,0.016052246,8.046875,-1.390625,-7.046875
1635452256350,-0.60180664,0.8070679,-0.0335083,-3.46875,-8.296875,-10.734375
1635452256387,-0.6347656,0.84832764,-0.015686035,-1.265625,-6.3125,-7.78125
1635452256425,-0.60595703,0.8497925,0.0079956055,5.96875,-3.953125,-7.953125
1635452256462,-0.5788574,0.79119873,-0.015197754,5.109375,-2.03125,-7.234375
1635452256499,-0.5839844,0.77752686,0.016540527,3.578125,-0.53125,-4.421875
1635452256537,-0.6525879,0.79730225,0.040222168,-0.546875,2.71875,-2.296875
1635452256593,-0.60302734,0.8600464,-0.008605957,-1.5,5.140625,-6.3125
1635452256631,-0.5292969,0.8590698,-6.1035156E-5,0.640625,3.78125,-7.03125
1635452256668,-0.50878906,0.838562,0.012145996,-0.21875,3.125,-6.1875
1635452256706,-0.5305176,0.838562,0.055114746,1.21875,0.390625,-4.890625
1635452256744,-0.5402832,0.87615967,0.035583496,0.03125,1.359375,-4.28125
1635452256781,-0.5202637,0.8937378,0.035827637,2.484375,2.125,-6.359375
1635452256818,-0.5317383,0.89520264,0.047790527,0.6875,1.5,-4.59375
1635452256856,-0.5090332,0.9345093,-0.019836426,-5.9375,3.109375,-4.140625
1635452256893,-0.5109863,0.9071655,-0.03741455,-2.46875,0.984375,-4.34375
1635452256931,-0.53125,0.84295654,-0.011047363,3.703125,0.921875,-1.40625
1635452256969,-0.5529785,0.8187866,0.016540527,2.3125,6.75,2.09375
1635452257025,-0.57055664,0.85809326,0.014099121,-2.4375,11.734375,0.59375
1635452257062,-0.46801758,0.94647217,-0.07501221,-10.640625,9.4375,-4.96875
1635452257100,-0.42895508,0.8986206,-0.101623535,-4.0,5.671875,-4.765625
1635452257138,-0.4128418,0.84417725,-0.019348145,4.125,5.453125,-1.015625
1635452257175,-0.4194336,0.8583374,-0.07086182,-8.21875,1.6875,-1.171875
1635452257212,-0.47998047,0.9647827,-0.18609619,-14.0,0.28125,2.71875
1635452257268,-0.4946289,0.95648193,-0.15899658,-3.828125,8.609375,2.296875
1635452257286,-0.48388672,0.84954834,-0.06842041,1.734375,7.71875,-1.65625
1635452257325,-0.4243164,0.8356323,-0.062805176,0.375,-0.125,-2.546875
1635452257362,-0.41064453,0.8842163,-0.10406494,-2.6875,1.625,3.078125
1635452257418,-0.49047852,0.86517334,-0.12261963,-6.234375,7.265625,6.640625
1635452257456,-0.5761719,0.86102295,-0.024719238,-0.5,5.296875,6.21875
1635452257512,-0.57666016,0.90740967,0.00970459,2.8125,5.78125,-0.125
1635452257533,-0.51293945,0.9225464,-0.08135986,-5.203125,3.6875,-6.546875
1635452257568,-0.50097656,0.8690796,-0.06695557,-2.921875,3.34375,-6.28125
1635452257606,-0.47680664,0.852478,-0.050354004,2.5,4.28125,-2.140625
1635452257643,-0.5007324,0.8241577,-0.06549072,4.03125,1.515625,0.0
1635452257681,-0.51342773,0.8434448,-0.07623291,0.0625,-5.390625,-0.34375
1635452257718,-0.53515625,0.84417725,-0.06011963,-0.09375,-8.671875,-1.859375
1635452257756,-0.4572754,0.826355,-0.10845947,0.40625,-14.578125,-0.9375
1635452257812,-0.36621094,0.7977905,-0.13482666,1.5625,-22.140625,1.84375
1635452257850,-0.3725586,0.80682373,-0.15362549,-1.359375,-28.265625,10.15625
1635452257887,-0.44995117,0.92230225,-0.15875244,-2.859375,-26.34375,20.21875
1635452257925,-0.5463867,1.1329956,-0.17242432,1.015625,-24.046875,13.390625
1635452257964,-0.51464844,1.1063843,-0.21051025,8.640625,-23.6875,-4.703125
1635452258000,-0.39575195,0.8759155,-0.19073486,11.5625,-24.65625,-11.453125
1635452258038,-0.3955078,0.8148804,-0.159729,9.75,-22.46875,-2.515625
1635452258075,-0.42749023,0.82684326,-0.19732666,5.734375,-16.953125,5.5
1635452258112,-0.4506836,0.83709717,-0.2805786,-0.453125,-16.859375,4.046875
1635452258150,-0.4885254,0.8685913,-0.29962158,-0.703125,-16.859375,2.109375
1635452258189,-0.5046387,0.8497925,-0.32403564,4.484375,-14.84375,1.515625
1635452258243,-0.4555664,0.8312378,-0.32354736,8.25,-15.5,-1.203125
1635452258282,-0.45117188,0.82489014,-0.3196411,11.046875,-16.25,1.65625
1635452258322,-0.4338379,0.8048706,-0.32818604,12.234375,-12.828125,6.265625
1635452258357,-0.45117188,0.80218506,-0.3460083,10.71875,-13.015625,5.4375
1635452258394,-0.5019531,0.74334717,-0.2979126,13.421875,-14.078125,5.140625
1635452258431,-0.49975586,0.82977295,-0.26934814,12.140625,-10.578125,5.125
1635452258469,-0.4807129,0.90374756,-0.25250244,11.453125,-10.21875,1.46875
1635452258506,-0.48486328,0.9179077,-0.30010986,11.234375,-7.765625,1.765625
1635452258544,-0.5109863,0.88079834,-0.28863525,15.546875,-4.328125,4.640625
1635452258582,-0.53393555,0.84954834,-0.23052979,19.21875,-1.90625,5.015625
1635452258646,-0.5217285,0.8307495,-0.17144775,22.078125,0.625,-0.328125
1635452258674,-0.47583008,0.79437256,-0.1572876,13.46875,-2.21875,-7.171875
1635452258713,-0.46484375,0.86712646,-0.09942627,18.234375,-1.796875,-2.9375
1635452258752,-0.48608398,0.94451904,-0.06964111,19.953125,3.21875,-1.421875
1635452258788,-0.51123047,0.93499756,-0.03375244,16.671875,2.125,-2.28125
1635452258825,-0.5463867,0.94329834,-0.022521973,16.171875,7.84375,0.296875
1635452258864,-0.49975586,0.8756714,-0.016662598,11.3125,4.609375,-3.140625
1635452258900,-0.45922852,0.9447632,0.07537842,9.625,-4.578125,-3.15625
1635452258938,-0.43041992,0.8942261,0.113220215,3.484375,4.796875,4.578125
1635452258977,-0.43823242,0.95477295,0.0993042,-7.0625,5.484375,11.4375
1635452259070,-0.4831543,1.0839233,0.07293701,3.96875,8.046875,11.9375
1635452259073,-0.45825195,1.0385132,0.14031982,8.53125,12.234375,5.796875
1635452259107,-0.39282227,0.89398193,0.02557373,-8.90625,13.234375,-1.734375
1635452259144,-0.33276367,0.82196045,0.0048217773,0.890625,8.390625,1.859375
1635452259182,-0.36816406,0.7316284,0.08026123,14.34375,4.53125,8.65625
1635452259220,-0.48510742,0.72650146,0.11468506,12.421875,7.21875,11.3125
1635452259256,-0.5109863,0.81170654,0.09539795,0.65625,6.921875,4.0625
1635452259313,-0.5151367,0.947937,0.036315918,-4.265625,2.25,-6.390625
1635452259332,-0.54711914,0.9281616,0.02557373,-0.9375,3.03125,-7.921875
1635452259369,-0.55566406,0.8949585,0.07611084,1.375,7.671875,-4.25
1635452259406,-0.5283203,0.87005615,0.070251465,-0.34375,8.015625,-4.96875
1635452259463,-0.5187988,0.8915405,0.041931152,-0.53125,2.96875,-5.921875
1635452259500,-0.5432129,0.87323,0.032165527,-5.046875,0.34375,-5.984375
1635452259539,-0.5522461,0.8707886,0.050964355,-5.703125,1.359375,-5.8125
1635452259575,-0.5070801,0.8065796,0.0045776367,-2.40625,5.328125,-3.875
1635452259615,-0.49609375,0.7875366,9.1552734E-4,-4.015625,3.625,-2.4375
1635452259649,-0.55249023,0.8300171,0.03656006,-5.84375,5.328125,-1.046875
1635452259688,-0.5810547,1.0131226,-0.050842285,-11.75,11.53125,-2.828125
1635452259724,-0.56274414,1.06073,-0.13995361,-15.734375,12.578125,-5.875
1635452259763,-0.5024414,0.95599365,-0.078186035,-0.421875,20.234375,-4.40625
1635452259800,-0.43066406,0.805603,-0.023254395,0.578125,18.6875,-6.765625
1635452259857,-0.40722656,0.7819214,-0.04034424,-11.34375,10.578125,-6.421875
1635452259894,-0.42260742,0.8595581,-0.10650635,-14.984375,13.890625,-0.703125
1635452259932,-0.44506836,0.88934326,-0.12188721,-11.6875,18.0625,1.484375
1635452259969,-0.49389648,0.86932373,-0.08795166,-9.359375,15.734375,-1.4375
1635452260007,-0.47558594,0.86053467,-0.101135254,-7.203125,13.109375,-4.453125
1635452260044,-0.39648438,0.85980225,-0.11993408,-8.328125,9.125,-4.703125
1635452260083,-0.37158203,0.87615967,-0.14068604,-11.734375,5.453125,0.484375
1635452260119,-0.35327148,0.88812256,-0.113342285,-14.234375,1.875,8.0
1635452260156,-0.3330078,0.91082764,-0.13995361,-11.390625,-8.96875,9.171875
1635452260194,-0.3466797,0.9154663,-0.14581299,-2.625,-19.9375,6.90625
1635452260289,-0.40771484,0.9489136,-0.12799072,-4.65625,-22.015625,10.28125
1635452260310,-0.36328125,1.0297241,-0.18389893,-10.265625,-25.578125,8.078125
1635452260344,-0.36401367,1.0348511,-0.29962158,-3.640625,-29.640625,3.140625
1635452260364,-0.46875,0.9970093,-0.24371338,14.21875,-24.9375,0.421875
1635452260400,-0.4489746,0.8554077,-0.17706299,21.1875,-20.609375,-4.5625
1635452260437,-0.36010742,0.82073975,-0.20855713,6.90625,-21.375,-4.984375
1635452260475,-0.35302734,0.92108154,-0.3008423,-1.5,-17.34375,-0.46875
1635452260517,-0.37670898,0.887146,-0.3196411,7.359375,-15.609375,1.796875
1635452260551,-0.4182129,0.89105225,-0.38189697,3.375,-24.859375,-1.5625
1635452260588,-0.43945312,0.887146,-0.33624268,11.40625,-21.5,-4.984375
1635452260626,-0.32421875,0.8595581,-0.2937622,19.5625,-18.78125,-2.328125
1635452260681,-0.36865234,0.8666382,-0.2852173,13.0,-17.625,-0.8125
1635452260718,-0.3720703,0.84954834,-0.30670166,10.390625,-17.21875,1.609375
1635452260757,-0.36499023,0.90008545,-0.33843994,11.734375,-15.3125,3.21875
1635452260794,-0.38183594,0.85980225,-0.3027954,12.96875,-17.890625,4.234375
1635452260832,-0.3774414,0.8744507,-0.32330322,13.421875,-15.671875,5.34375
1635452260868,-0.3947754,0.85614014,-0.3086548,12.609375,-13.1875,5.125
1635452260906,-0.39819336,0.8817749,-0.27471924,15.8125,-10.03125,4.125
1635452260944,-0.37768555,0.8915405,-0.26275635,13.421875,-6.921875,1.34375
1635452260981,-0.3725586,0.85491943,-0.25811768,14.6875,-5.40625,1.828125
1635452261018,-0.35888672,0.821228,-0.26763916,13.0625,-5.484375,4.328125
1635452261074,-0.39770508,0.82855225,-0.2571411,7.28125,-6.265625,6.203125
1635452261113,-0.4248047,0.8529663,-0.25250244,6.609375,-5.484375,7.40625
1635452261150,-0.48095703,0.8690796,-0.2131958,10.625,-3.84375,8.6875
1635452261188,-0.5300293,0.84539795,-0.1807251,15.640625,-0.328125,8.015625
1635452261225,-0.57714844,0.84783936,-0.11627197,11.71875,0.9375,5.0625
1635452261262,-0.5732422,0.90911865,-0.046691895,0.0625,7.8125,3.125
1635452261300,-0.51660156,0.9789429,-0.023986816,-3.765625,15.671875,2.265625
1635452261337,-0.41308594,1.0150757,-0.043029785,-12.515625,17.75,0.90625
1635452261378,-0.47387695,1.0697632,-0.04815674,1.703125,21.34375,10.984375
1635452261412,-0.47045898,1.0050659,0.061462402,3.90625,24.453125,5.375
1635452261469,-0.39892578,0.95477295,0.02532959,-15.421875,19.3125,-2.0
1635452261507,-0.37719727,0.9557495,-0.0049438477,-12.046875,18.0625,-4.265625
1635452261544,-0.36694336,0.8461304,0.016540527,2.953125,15.390625,-0.640625
1635452261583,-0.40576172,0.7880249,-0.0020141602,4.734375,8.171875,-0.34375
1635452261619,-0.47875977,0.83929443,-0.0256958,7.390625,4.953125,3.328125
1635452261656,-0.5046387,0.8473511,-0.0076293945,13.515625,8.6875,3.296875
1635452261695,-0.5124512,0.7965698,-0.0076293945,6.390625,10.0625,-0.96875
1635452261732,-0.5366211,0.8121948,0.0016479492,-2.65625,10.78125,-1.375
1635452261769,-0.57128906,0.9135132,-0.016662598,-3.53125,15.203125,2.5625
1635452261806,-0.5371094,0.94329834,-0.022766113,-2.796875,20.3125,0.15625
1635452261862,-0.50097656,0.9447632,-0.06719971,-5.8125,14.046875,-4.765625
1635452261901,-0.4885254,0.8554077,-0.039367676,-8.859375,15.609375,-4.75
1635452261938,-0.5209961,0.78240967,-0.021057129,-9.515625,19.59375,-2.640625
1635452261975,-0.54125977,0.7904663,-0.028137207,-3.75,19.046875,-1.921875
1635452262012,-0.54248047,0.87493896,-0.054748535,-5.71875,23.28125,-3.1875
1635452262050,-0.50756836,0.9450073,-0.016906738,-4.125,21.09375,-8.828125
1635452262087,-0.47021484,0.9454956,0.006286621,-5.6875,19.5,-8.71875
1635452262126,-0.43725586,0.9789429,-0.058410645,-6.078125,18.59375,-5.859375
1635452262163,-0.44067383,0.97576904,-0.074035645,-3.453125,18.140625,-2.1875
1635452262201,-0.4885254,0.85369873,-0.017150879,-1.671875,18.453125,1.25
1635452262238,-0.5270996,0.8497925,6.713867E-4,-8.859375,13.046875,-3.640625
1635452262294,-0.38964844,0.8851929,-0.061340332,-5.84375,8.328125,-10.03125
1635452262331,-0.3466797,0.9262085,-0.12335205,-1.140625,8.875,-6.125
1635452262370,-0.36743164,0.949646,-0.06451416,2.78125,12.796875,1.078125
1635452262406,-0.39379883,0.93182373,-0.06549072,-5.5625,7.6875,-0.84375
1635452262443,-0.4296875,0.92596436,-0.077697754,-1.484375,1.765625,-4.96875
1635452262481,-0.39770508,0.8920288,-0.074523926,1.75,3.328125,-5.65625
1635452262518,-0.42358398,0.8624878,-0.062561035,-3.40625,6.65625,-1.40625
1635452262556,-0.4580078,0.9147339,-0.101623535,-4.5625,8.515625,-0.421875
1635452262593,-0.44311523,0.887146,-0.11895752,-1.234375,1.625,-4.140625
1635452262631,-0.38208008,0.8773804,-0.12701416,-3.0,-7.4375,-5.0625
1635452262687,-0.36816406,0.8546753,-0.15679932,-4.703125,-10.328125,1.3125
1635452262724,-0.38598633,0.85858154,-0.17730713,-6.109375,-17.59375,8.125
1635452262762,-0.39770508,0.85809326,-0.15411377,-8.40625,-25.5625,9.359375
1635452262800,-0.3605957,0.85369873,-0.12628174,-8.578125,-30.515625,8.875
1635452262837,-0.3864746,0.97283936,-0.20953369,-12.1875,-32.25,10.625
1635452262875,-0.49316406,1.0285034,-0.29156494,-4.734375,-24.234375,10.140625
1635452262912,-0.54174805,1.0026245,-0.18365479,19.9375,-14.984375,1.96875
1635452262949,-0.3942871,0.852478,-0.1375122,15.640625,-17.578125,-10.625
1635452262987,-0.26391602,0.85614014,-0.2390747,-2.953125,-20.21875,-5.40625
1635452263026,-0.25073242,0.90911865,-0.2781372,-9.75,-14.640625,4.46875
1635452263081,-0.34570312,0.89837646,-0.3928833,-10.140625,-22.640625,8.015625
1635452263118,-0.44311523,0.934021,-0.427063,6.71875,-27.515625,7.890625
1635452263155,-0.45629883,0.8944702,-0.4151001,22.765625,-23.953125,7.4375
1635452263193,-0.44384766,0.85931396,-0.32720947,32.234375,-20.546875,4.140625
1635452263231,-0.4206543,0.81121826,-0.31573486,27.046875,-22.796875,0.140625
1635452263270,-0.36987305,0.80511475,-0.32647705,13.875,-23.28125,-2.046875
1635452263306,-0.37695312,0.7975464,-0.3809204,9.0,-23.359375,2.03125
1635452263343,-0.4338379,0.824646,-0.35479736,17.640625,-20.140625,8.171875
1635452263381,-0.4724121,0.8151245,-0.28448486,23.984375,-16.421875,8.671875
1635452263419,-0.4423828,0.8329468,-0.24786377,20.734375,-14.9375,3.578125
1635452263455,-0.3881836,0.83758545,-0.25250244,13.828125,-14.265625,-1.15625
1635452263512,-0.4248047,0.87323,-0.19976807,13.90625,-14.171875,0.5625
1635452263550,-0.4970703,0.90960693,-0.11578369,22.796875,-8.359375,6.3125
1635452263587,-0.5710449,0.9269409,-0.10406494,25.96875,-3.40625,6.09375
1635452263625,-0.5324707,1.0184937,-0.09820557,20.71875,-7.671875,2.6875
1635452263662,-0.5041504,1.0441284,0.054870605,23.5625,-2.328125,8.1875
1635452263700,-0.53466797,1.0158081,0.10076904,8.5,5.671875,13.46875
1635452263737,-0.4951172,0.96014404,0.08514404,1.546875,9.765625,12.53125
1635452263775,-0.36669922,0.9242554,0.10418701,-1.6875,8.25,7.765625
1635452263812,-0.34204102,0.93182373,0.070251465,-5.15625,1.734375,4.0625
1635452263850,-0.38720703,0.8969116,0.05218506,4.375,2.34375,6.203125
1635452263907,-0.44702148,0.74432373,0.08758545,15.34375,5.859375,7.5
1635452263944,-0.52685547,0.7062378,0.12689209,10.984375,6.53125,8.125
1635452263982,-0.53344727,0.8151245,0.09100342,-3.34375,15.953125,4.296875
1635452264020,-0.5476074,0.86224365,0.024841309,-9.9375,18.3125,0.71875
1635452264059,-0.4814453,0.9735718,-0.019836426,-0.625,15.671875,-1.046875
1635452264093,-0.50805664,0.93499756,0.08050537,7.796875,19.75,1.953125
1635452264131,-0.53344727,0.89056396,0.101501465,-7.65625,25.546875,-0.234375
1635452264169,-0.60180664,0.8969116,0.053894043,-43.875,20.015625,-9.765625
1635452264207,-0.43408203,0.885437,0.042663574,0.625,15.75,-6.609375
1635452264300,-0.3791504,0.87371826,0.04827881,-1.625,11.046875,-3.453125
1635452264303,-0.4404297,0.8810425,0.0033569336,-3.03125,6.921875,3.265625
1635452264341,-0.5649414,0.87835693,0.03704834,1.046875,9.171875,5.125
1635452264375,-0.58154297,0.8510132,0.04827881,-2.359375,6.75,-4.34375
1635452264412,-0.56591797,0.85614014,-0.0134887695,-9.46875,9.0,-6.203125
1635452264450,-0.5769043,0.8187866,0.03289795,-3.40625,18.46875,-1.40625
1635452264488,-0.42871094,0.85272217,0.13616943,4.828125,16.75,-6.078125
1635452264527,-0.3359375,0.9381714,-0.078186035,-16.40625,2.0625,-9.375
1635452264563,-0.47094727,1.0553589,-0.09136963,-5.734375,0.3125,5.046875
1635452264600,-0.5842285,0.9071655,0.07293701,6.59375,11.46875,4.09375
1635452264639,-0.59399414,0.74676514,0.11126709,-0.5,8.796875,-7.359375
1635452264675,-0.47583008,0.81903076,0.007019043,-4.125,5.328125,-10.375
1635452264732,-0.47460938,0.96014404,-0.09967041,-15.5,6.703125,-1.125
1635452264769,-0.5131836,1.0202026,-0.077941895,-4.65625,18.109375,0.78125
1635452264807,-0.46191406,0.85272217,-0.03302002,0.484375,14.296875,-5.109375
1635452264844,-0.43188477,0.8329468,0.034118652,-2.53125,3.328125,-4.078125
1635452264882,-0.39697266,0.8798218,-0.053771973,-7.765625,5.96875,2.421875
1635452264920,-0.35595703,0.8915405,-0.13677979,-9.328125,4.15625,6.546875
1635452264957,-0.37597656,0.8632202,-0.12530518,-7.328125,-3.828125,7.4375
1635452265000,-0.4362793,0.8607788,-0.07623291,-3.0625,-7.25,8.734375
1635452265032,-0.4477539,0.9796753,-0.0725708,-7.84375,-9.4375,7.96875
1635452265069,-0.44873047,1.0848999,-0.09307861,3.203125,-9.0625,-0.03125
1635452265125,-0.4230957,1.0270386,-0.10748291,10.078125,-4.09375,-11.8125
1635452265163,-0.39208984,0.84198,-0.1350708,-2.390625,-5.578125,-14.734375
1635452265200,-0.40771484,0.77874756,-0.08502197,-7.53125,-5.3125,-5.65625
1635452265239,-0.43798828,0.8319702,-0.031066895,-0.421875,0.15625,2.78125
1635452265276,-0.42822266,0.9623413,-0.15582275,-6.65625,-3.140625,-1.859375
1635452265312,-0.35986328,1.0126343,-0.29840088,-8.453125,-9.40625,-11.375
1635452265351,-0.4074707,0.99871826,-0.23712158,5.09375,-10.921875,-9.71875
1635452265388,-0.40185547,0.9081421,-0.2642212,10.265625,-7.4375,-8.0
1635452265425,-0.34326172,0.81781006,-0.29449463,9.671875,-8.921875,-4.6875
1635452265481,-0.3371582,0.8283081,-0.29815674,5.765625,-17.765625,-1.421875
1635452265520,-0.43554688,0.8829956,-0.32354736,4.125,-17.21875,0.96875
1635452265556,-0.41015625,0.81292725,-0.36309814,7.421875,-17.671875,0.484375
1635452265594,-0.48754883,0.78656006,-0.2715454,5.71875,-16.5625,4.015625
1635452265631,-0.4716797,0.7074585,-0.1831665,12.140625,-1.0625,8.046875
1635452265669,-0.38720703,0.7914429,-0.21514893,-2.5,-4.46875,3.109375
1635452265705,-0.36767578,0.87323,-0.25543213,-2.59375,-6.828125,4.171875
1635452265745,-0.4675293,0.91619873,-0.21295166,4.546875,-5.3125,7.734375
1635452265801,-0.63012695,0.88690186,-0.105773926,27.421875,3.734375,12.03125
1635452265819,-0.60913086,0.9188843,-0.012756348,18.203125,6.75,4.6875
1635452265857,-0.43310547,1.074646,-0.07354736,-15.859375,1.890625,-2.46875
1635452265894,-0.42651367,1.2040405,-0.0076293945,14.59375,5.0,5.578125
1635452265950,-0.50341797,1.0665894,0.184021,18.921875,6.125,3.984375
1635452265987,-0.5036621,0.96087646,0.12786865,-4.203125,5.265625,2.046875
1635452266024,-0.47827148,0.9940796,0.078308105,-2.328125,7.390625,3.125
1635452266062,-0.44970703,0.9476929,0.089782715,0.390625,9.46875,0.453125
1635452266101,-0.37841797,0.8312378,0.042419434,1.46875,7.3125,-1.078125
1635452266137,-0.38305664,0.7509155,0.05682373,8.015625,6.953125,2.265625
1635452266174,-0.43139648,0.793396,0.10247803,6.75,4.8125,3.078125
1635452266214,-0.4819336,0.90618896,0.058776855,1.296875,6.765625,2.3125
1635452266250,-0.47094727,0.94940186,0.030456543,6.015625,8.609375,-1.21875
1635452266287,-0.43115234,0.94647217,0.018493652,4.671875,3.671875,-3.640625
1635452266344,-0.43676758,0.9191284,0.039245605,10.328125,2.640625,-1.96875
1635452266382,-0.4794922,0.8473511,0.06561279,9.203125,2.515625,-0.125
1635452266419,-0.18017578,0.6503296,-0.32037354,-9.625,7.578125,-7.59375
1635452266456,-0.49829102,0.87664795,0.053649902,4.75,2.953125,-2.3125
1635452266512,-0.4802246,0.8668823,0.0065307617,-0.953125,6.015625,-4.140625
1635452266532,-0.47753906,0.8644409,0.007019043,-2.84375,5.796875,-1.703125
1635452266569,-0.529541,0.8624878,-0.015197754,-3.140625,8.96875,-1.578125
1635452266606,-0.54296875,0.8390503,0.020690918,-3.75,11.515625,-1.703125
1635452266643,-0.515625,0.8414917,-0.0025024414,-5.875,13.21875,-5.65625
1635452266681,-0.47485352,0.8851929,-0.041809082,-6.03125,12.515625,-4.703125
1635452266775,-0.47729492,0.9320679,-0.0154418945,-4.953125,12.953125,-1.5625
1635452266779,-0.46069336,0.883728,-0.026428223,-5.75,16.015625,-2.015625
1635452266813,-0.47094727,0.8617554,0.04949951,4.0625,12.921875,-2.984375
1635452266850,-0.45483398,0.97088623,0.0040893555,5.140625,13.296875,-0.03125
1635452266890,-0.49389648,1.0719604,-0.04473877,-15.53125,11.765625,-1.140625
1635452266925,-0.4951172,1.0387573,-0.08135986,-6.53125,17.109375,-1.046875
1635452266963,-0.38134766,0.9227905,-0.0020141602,5.703125,15.4375,-3.9375
1635452267003,-0.28295898,0.79486084,0.010681152,1.171875,5.609375,-6.875
1635452267038,-0.33862305,0.8151245,0.0026245117,-6.296875,-1.453125,1.390625
1635452267074,-0.45654297,0.9537964,-0.039367676,-4.984375,4.203125,9.328125
1635452267131,-0.49316406,0.9784546,-0.03668213,0.484375,6.109375,3.0625
1635452267169,-0.45483398,0.8878784,-0.05255127,-0.609375,-0.4375,-5.5
1635452267207,-0.43310547,0.8690796,-0.038146973,-0.671875,-3.40625,-2.890625
1635452267243,-0.41723633,0.8937378,-0.031311035,4.25,-0.03125,4.125
1635452267282,-0.39086914,0.8414917,-0.046447754,3.546875,-1.203125,7.25
1635452267321,-0.37963867,0.87615967,-0.1038208,-7.375,-10.96875,6.734375
1635452267356,-0.45507812,0.88153076,-0.12823486,-14.984375,-13.171875,9.875
1635452267395,-0.5407715,0.93573,-0.07867432,-7.625,-2.703125,12.90625
1635452267431,-0.5473633,0.982605,-0.09527588,2.609375,5.484375,3.15625
1635452267468,-0.45385742,0.95428467,-0.08380127,2.140625,3.359375,-13.4375
1635452267506,-0.35791016,0.8805542,-0.11846924,-11.1875,-1.109375,-16.078125
1635452267562,-0.36669922,0.8866577,-0.1026001,-13.96875,3.671875,-4.78125
1635452267599,-0.38330078,0.82244873,-0.06890869,0.28125,9.625,6.015625
1635452267639,-0.41259766,0.89276123,-0.10723877,2.875,3.921875,6.859375
1635452267674,-0.47314453,0.95306396,-0.16558838,-8.0625,-1.296875,-0.078125
1635452267712,-0.5078125,0.99993896,-0.20977783,-3.25,-2.234375,-8.015625
1635452267750,-0.4230957,0.91448975,-0.21783447,6.9375,0.015625,-11.171875
1635452267806,-0.37353516,0.84661865,-0.1975708,8.09375,-3.1875,-5.359375
1635452267825,-0.4033203,0.8439331,-0.2432251,3.28125,-4.0625,2.28125
1635452267862,-0.45117188,0.8859253,-0.28253174,4.375,-7.0,2.265625
1635452267918,-0.4580078,0.8908081,-0.30792236,2.796875,-12.578125,-1.875
1635452267957,-0.51464844,0.80633545,-0.32574463,12.0625,-11.96875,-1.484375
1635452267996,-0.5185547,0.77337646,-0.23516846,13.46875,-7.640625,0.015625
1635452268031,-0.37573242,0.78289795,-0.16412354,10.46875,-5.375,-0.890625
1635452268087,-0.37402344,0.7850952,-0.21783447,-3.625,-7.859375,-1.546875
1635452268106,-0.45654297,0.88323975,-0.21221924,1.890625,-8.859375,7.390625
1635452268143,-0.5263672,0.95721436,-0.18609619,13.921875,-1.6875,10.0625
1635452268181,-0.52978516,0.8707886,-0.17633057,17.65625,-2.6875,2.640625
1635452268218,-0.5461426,0.8295288,-0.13922119,3.609375,-2.6875,2.734375
1635452268256,-0.5859375,0.92401123,-0.09063721,2.4375,6.234375,11.34375
1635452268293,-0.6352539,0.9789429,0.042663574,4.875,10.984375,11.03125
1635452268350,-0.5241699,1.0927124,0.11419678,-3.546875,9.984375,-1.15625
1635452268387,-0.40478516,1.1395874,0.13201904,-2.765625,10.6875,-7.21875
1635452268424,-0.35229492,0.99823,0.09466553,-6.4375,17.296875,1.65625
1635452268462,-0.40405273,0.97332764,0.07489014,-6.0625,6.84375,5.984375
1635452268501,-0.45214844,0.91864014,0.028747559,3.265625,-1.984375,0.53125
1635452268538,-0.4404297,0.80584717,0.073913574,19.015625,-1.796875,-1.421875
1635452268574,-0.42163086,0.78411865,0.09466553,14.90625,-0.34375,-1.234375
1635452268613,-0.42358398,0.80218506,0.04901123,6.578125,0.265625,0.390625
1635452268650,-0.47094727,0.8744507,-0.010559082,8.03125,2.515625,5.984375
1635452268688,-0.5625,0.9345093,0.23016357,7.359375,3.96875,2.734375
1635452268725,-0.51171875,0.8407593,0.0368042,7.9375,4.109375,-1.65625
1635452268781,-0.4790039,0.83148193,0.039733887,1.5,2.015625,-3.4375
1635452268819,-0.49267578,0.8329468,0.02532959,2.328125,4.25,-0.203125
1635452268856,-0.54541016,0.8925171,0.05682373,2.28125,5.546875,0.15625
1635452268894,-0.55249023,0.9425659,0.016540527,-0.625,8.3125,-3.796875
1635452268932,-0.5078125,0.92181396,-0.011291504,-1.953125,9.09375,-6.703125
1635452268969,-0.47338867,0.85931396,0.023620605,0.03125,6.703125,-6.703125
1635452269006,-0.49145508,0.84417725,0.061706543,-1.40625,4.9375,-5.296875
1635452269043,-0.49023438,0.87713623,0.044128418,-1.15625,6.65625,-3.84375
1635452269081,-0.49560547,0.8903198,0.026550293,1.640625,6.75,-3.828125
1635452269119,-0.5148926,0.90179443,0.019714355,-5.0,4.515625,-2.03125
1635452269176,-0.5280762,0.9384155,0.0045776367,1.28125,7.859375,1.609375
1635452269213,-0.53759766,0.9664917,-0.04058838,-0.703125,4.609375,1.515625
1635452269251,-0.50634766,0.9515991,-0.013244629,-3.1875,3.390625,-4.078125
1635452269287,-0.45288086,0.8278198,-0.028137207,-1.125,5.203125,-6.3125
1635452269325,-0.42993164,0.7802124,-0.036193848,-3.796875,5.75,-2.5625
1635452269362,-0.47558594,0.83099365,-0.0049438477,-6.21875,8.015625,3.1875
1635452269400,-0.48608398,0.97991943,-0.07647705,-11.328125,11.890625,-0.53125
1635452269438,-0.4284668,0.99017334,-0.1338501,-5.625,6.203125,-6.71875
1635452269476,-0.40161133,0.8847046,-0.046203613,-0.015625,2.84375,-6.6875
1635452269514,-0.4050293,0.8654175,0.0099487305,1.671875,2.859375,-2.046875
1635452269569,-0.4140625,0.8751831,-0.07501221,-6.625,0.25,-0.15625
1635452269607,-0.4501953,0.9227905,-0.14239502,-8.015625,-2.9375,1.359375
1635452269682,-0.4230957,0.9057007,-0.1116333,-3.96875,-4.234375,2.453125
1635452269685,-0.36816406,0.8432007,-0.093811035,-0.921875,-7.625,5.640625
1635452269720,-0.3720703,0.87005615,-0.10015869,-2.546875,-9.796875,8.4375
1635452269756,-0.46362305,0.9225464,-0.1194458,-5.359375,-5.390625,7.8125
1635452269793,-0.50927734,0.9100952,-0.14361572,-3.90625,-4.140625,1.59375
1635452269831,-0.5036621,0.9682007,-0.15557861,-5.96875,-3.0,-3.75
1635452269869,-0.45092773,0.9994507,-0.18536377,-3.359375,0.390625,-6.8125
1635452269907,-0.39257812,0.9281616,-0.15093994,4.484375,-0.984375,-8.1875
1635452269945,-0.41015625,0.85076904,-0.11529541,8.84375,0.625,-6.0625
1635452270000,-0.40576172,0.8226929,-0.09869385,3.15625,1.984375,-1.34375
1635452270040,-0.40551758,0.85443115,-0.14874268,-2.921875,1.921875,3.0
1635452270074,-0.45922852,0.9191284,-0.21124268,-2.390625,2.234375,3.71875
1635452270112,-0.5019531,0.93914795,-0.24859619,3.765625,3.796875,2.4375
1635452270149,-0.4650879,0.8942261,-0.222229,9.078125,7.5625,-2.03125
1635452270187,-0.42016602,0.8395386,-0.20635986,8.4375,2.875,-5.71875
1635452270225,-0.3395996,0.8348999,-0.2029419,7.8125,-0.65625,-2.8125
1635452270262,-0.36743164,0.8739624,-0.33843994,-0.796875,-6.375,2.109375
1635452270299,-0.41430664,0.8912964,-0.36358643,-3.609375,-7.515625,5.109375
1635452270337,-0.46191406,0.78167725,-0.3743286,2.296875,-7.125,5.515625
1635452270394,-0.5419922,0.7575073,-0.2546997,10.921875,-9.078125,7.21875
1635452270431,-0.47924805,0.7243042,-0.20733643,7.265625,-2.828125,4.59375
1635452270469,-0.45581055,0.7946167,-0.22369385,-7.421875,-9.09375,3.5625
1635452270506,-0.5439453,0.89837646,-0.16046143,7.859375,-3.703125,9.53125
1635452270543,-0.57470703,0.9179077,-0.061340332,26.09375,4.140625,4.828125
1635452270581,-0.5620117,0.8956909,0.010681152,10.953125,-2.203125,-1.640625
1635452270618,-0.5336914,1.0951538,-0.04937744,-9.6875,5.984375,-0.140625
1635452270655,-0.5266113,1.078064,-0.05987549,1.453125,10.828125,0.859375
1635452270693,-0.55200195,0.97650146,0.12738037,15.421875,3.03125,-0.125
1635452270731,-0.5168457,1.0001831,0.18084717,7.28125,7.046875,-2.8125
1635452270787,-0.40014648,0.6828003,-0.362854,-41.515625,21.171875,-7.109375
1635452270825,-0.45703125,0.9616089,0.034362793,0.734375,11.140625,2.046875
1635452270862,-0.38110352,0.822937,0.06781006,5.5625,7.65625,-4.6875
1635452270899,-0.38427734,0.76116943,0.039001465,7.140625,-1.09375,0.671875
1635452270937,-0.46044922,0.8161011,0.061706543,10.5625,2.3125,6.90625
1635452270975,-0.50756836,0.86224365,0.026306152,7.484375,4.1875,4.28125
1635452271012,-0.5151367,0.8776245,-0.0010375977,3.3125,3.109375,-1.53125
1635452271050,-0.4716797,0.84954834,-0.003479004,6.9375,5.609375,-4.25
1635452271087,-0.43945312,0.8397827,0.013366699,6.34375,1.3125,-5.515625
1635452271125,-0.48095703,0.8912964,0.02166748,1.421875,-1.296875,-3.4375
1635452271162,-0.50683594,0.9154663,0.014343262,1.46875,4.1875,-3.265625
1635452271218,-0.4807129,0.87298584,-0.01373291,1.578125,4.734375,-7.78125
1635452271256,-0.44604492,0.8475952,0.009216309,1.421875,-0.6875,-6.484375
1635452271293,-0.47998047,0.8473511,0.019958496,1.3125,2.6875,-0.125
1635452271331,-0.5209961,0.90057373,0.010681152,2.765625,6.171875,3.140625
1635452271371,-0.5559082,0.92230225,0.015563965,0.96875,6.078125,-0.8125
1635452271407,-0.57836914,0.92352295,0.023864746,-4.140625,9.296875,-5.15625
1635452271443,-0.53100586,0.8825073,0.0065307617,-0.96875,9.96875,-7.125
1635452271482,-0.46557617,0.8444214,0.0060424805,2.8125,9.609375,-4.953125
1635452271518,-0.48754883,0.8617554,0.035827637,-0.640625,9.828125,0.21875
1635452271556,-0.52441406,0.9743042,-0.051330566,-10.796875,13.546875,-1.21875
1635452271612,-0.4699707,0.9450073,-0.0010375977,2.390625,14.953125,-6.9375
1635452271649,-0.36914062,0.8768921,0.0368042,1.484375,6.40625,-9.328125
1635452271687,-0.40234375,0.8966675,0.011657715,-6.046875,4.90625,-2.65625
1635452271724,-0.44750977,0.9398804,0.02532959,3.546875,10.859375,3.203125
1635452271762,-0.4567871,0.9100952,0.002380371,3.4375,10.703125,0.484375
1635452271800,-0.45629883,0.92767334,-0.019348145,-2.96875,6.734375,-1.15625
1635452271837,-0.43920898,0.9528198,0.009460449,1.3125,5.703125,0.875
1635452271874,-0.40478516,0.97161865,0.0018920898,6.046875,3.90625,0.5625
1635452271913,-0.3881836,0.89105225,0.012390137,0.703125,-1.828125,-1.75
1635452271951,-0.4255371,0.8522339,0.053894043,4.3125,-1.859375,1.21875
1635452272045,-0.43676758,0.9135132,0.022155762,4.796875,-1.9375,2.953125
1635452272048,-0.4350586,0.9945679,-0.03375244,1.4375,-5.359375,1.609375
1635452272081,-0.46020508,0.89227295,-0.014221191,4.390625,-3.609375,-0.4375
1635452272119,-0.4658203,0.8258667,0.027282715,3.25,-4.515625,1.203125
1635452272156,-0.46728516,0.87615967,-0.018859863,-0.625,-5.703125,4.296875
1635452272193,-0.4831543,0.9081421,-0.07501221,0.453125,-3.296875,5.640625
1635452272231,-0.50878906,0.89056396,-0.06549072,1.328125,-6.3125,5.28125
1635452272268,-0.46826172,0.8300171,-0.0076293945,2.453125,-6.96875,1.734375
1635452272306,-0.3984375,0.82440186,0.018493652,-2.625,-11.71875,2.171875
1635452272343,-0.40551758,0.95306396,-0.019348145,-6.109375,-11.75,6.34375
1635452272381,-0.4321289,0.9960327,-0.030090332,0.09375,-3.71875,4.03125
1635452272437,-0.4423828,0.95965576,-0.09503174,-0.421875,-6.1875,-4.375
1635452272475,-0.4404297,0.92059326,-0.028137207,-0.90625,-9.03125,-7.578125
1635452272513,-0.40063477,0.91448975,-0.01739502,-0.25,-9.8125,-6.5
1635452272550,-0.37524414,0.8930054,-0.06695557,-0.484375,-9.15625,-2.25
1635452272587,-0.3959961,0.8588257,-0.08013916,-0.125,-6.234375,3.6875
1635452272624,-0.43603516,0.8932495,-0.09552002,-4.296875,-7.125,6.21875
1635452272662,-0.48632812,0.95233154,-0.15777588,-1.84375,-9.75,3.59375
1635452272700,-0.4650879,0.96698,-0.17608643,2.65625,-9.90625,-1.875
1635452272737,-0.4489746,0.8908081,-0.1716919,3.9375,-9.578125,-2.75
1635452272775,-0.4230957,0.84417725,-0.18414307,3.765625,-9.9375,-0.375
1635452272831,-0.48876953,0.8629761,-0.22174072,7.015625,-12.984375,5.4375
1635452272869,-0.43725586,0.8744507,-0.23980713,7.328125,-13.359375,1.171875
1635452272907,-0.47143555,0.8209839,-0.28741455,3.234375,-17.265625,0.875
1635452272943,-0.47631836,0.81243896,-0.2510376,10.890625,-13.5625,5.203125
1635452272981,-0.4572754,0.79486084,-0.2883911,3.375,-11.1875,2.375
1635452273019,-0.515625,0.83099365,-0.22955322,8.34375,-14.046875,5.0
1635452273056,-0.5202637,0.8024292,-0.1428833,17.9375,-1.640625,5.0
1635452273093,-0.40112305,0.789978,-0.22589111,-2.46875,-6.875,-4.03125
1635452273131,-0.4663086,0.88397217,-0.27764893,0.890625,-11.546875,6.609375
1635452273169,-0.5695801,0.9266968,-0.22467041,13.40625,-3.515625,12.171875
1635452273225,-0.63793945,0.89105225,-0.17095947,14.53125,-4.796875,4.140625
1635452273263,-0.5283203,0.8817749,-0.1350708,12.96875,-1.953125,-5.640625
1635452273300,-0.51953125,0.8197632,-0.12506104,8.625,2.265625,-3.703125
1635452273337,-0.5332031,0.88568115,-0.06866455,13.4375,6.125,4.671875
1635452273374,-0.5180664,0.8720093,-0.08135986,10.15625,6.71875,-0.625
1635452273412,-0.47192383,0.888855,-0.08892822,-1.75,-5.390625,-1.046875
1635452273450,-0.53393555,0.96917725,0.028747559,10.1875,6.453125,4.8125
1635452273487,-0.5546875,0.8925171,0.19744873,6.5,10.21875,1.296875
1635452273525,-0.4794922,1.0043335,0.15692139,-13.171875,0.171875,-1.546875
1635452273562,-0.52856445,1.1764526,-0.0044555664,-6.953125,7.609375,3.078125
1635452273618,-0.51708984,1.064148,-0.0115356445,7.015625,15.03125,3.03125
1635452273656,-0.47045898,0.83465576,0.04534912,-9.59375,8.28125,-1.328125
1635452273693,-0.4255371,0.746521,0.04486084,1.53125,8.65625,-1.4375
1635452273731,-0.3947754,0.6774292,0.06488037,16.703125,4.9375,2.265625
1635452273768,-0.42041016,0.7418823,0.07269287,8.203125,1.921875,4.59375
1635452273806,-0.5065918,0.8817749,0.00579834,-1.421875,5.453125,3.40625
1635452273843,-0.55859375,0.9762573,-0.026672363,-0.328125,5.46875,0.5
1635452273881,-0.5373535,0.9105835,-0.026916504,-2.359375,7.359375,-1.890625
1635452273919,-0.51586914,0.8119507,0.047790527,7.234375,7.75,-2.328125
1635452273956,-0.5126953,0.8434448,0.01361084,4.171875,2.234375,-2.84375
1635452273993,-0.5185547,0.9035034,-0.02130127,0.625,6.359375,-3.03125
1635452274068,-0.54174805,0.8966675,0.01727295,0.625,8.40625,-1.78125
1635452274087,-0.529541,0.8578491,0.0048217773,-2.078125,9.8125,-4.46875
1635452274124,-0.53393555,0.81951904,0.0040893555,0.1875,6.953125,-4.40625
1635452274162,-0.53466797,0.8493042,0.0045776367,-1.46875,9.40625,-3.609375
1635452274202,-0.50561523,0.86395264,-0.007873535,2.171875,10.078125,-5.03125
1635452274237,-0.45654297,0.85076904,-0.00982666,-0.671875,7.96875,-4.640625
1635452274274,-0.5061035,0.88616943,0.020446777,-1.5,6.109375,-3.796875
1635452274312,-0.5373535,0.90008545,-0.0037231445,-4.125,4.890625,-5.421875
1635452274350,-0.53271484,0.92523193,-0.017150879,-1.46875,5.609375,-5.546875
1635452274387,-0.50561523,0.9266968,-0.03375244,-1.578125,4.453125,-7.015625
1635452274443,-0.48339844,0.9071655,-0.043273926,-4.984375,2.453125,-6.40625
1635452274481,-0.46923828,0.89886475,-0.059143066,-2.71875,4.171875,-4.28125
1635452274518,-0.49267578,0.8607788,-0.043518066,0.640625,4.796875,-1.421875
1635452274556,-0.5053711,0.8600464,-0.00592041,2.59375,6.421875,-0.25
1635452274593,-0.46435547,0.86102295,-0.037902832,1.09375,6.03125,-0.03125
1635452274631,-0.46899414,0.8822632,-0.08258057,-3.34375,2.234375,0.8125
1635452274668,-0.5085449,0.9735718,-0.06085205,-5.15625,1.3125,6.328125
1635452274706,-0.46728516,0.97943115,-0.10675049,-2.09375,0.734375,2.90625
1635452274744,-0.3881836,0.7963257,-0.08746338,3.90625,-9.609375,1.15625
1635452274781,-0.38891602,0.7670288,0.020446777,4.734375,-12.03125,5.53125
1635452274837,-0.4091797,0.91326904,-0.028625488,-9.25,-11.65625,8.734375
1635452274875,-0.40185547,0.99261475,-0.09576416,-9.1875,-5.71875,8.90625
1635452274912,-0.4260254,1.0045776,-0.1326294,-3.65625,-5.609375,4.8125
1635452274950,-0.46850586,0.9852905,-0.07647705,1.625,-1.90625,-2.6875
1635452274987,-0.4230957,0.9171753,-0.06964111,5.578125,-2.328125,-8.921875
1635452275028,-0.36010742,0.87493896,-0.10089111,0.140625,-5.140625,-9.515625
1635452275062,-0.39111328,0.8649292,-0.08746338,-5.140625,-3.9375,-2.359375
1635452275100,-0.41455078,0.8654175,-0.082336426,-2.0,0.65625,2.3125
1635452275137,-0.44873047,0.90545654,-0.09039307,5.59375,0.328125,1.96875
1635452275175,-0.45703125,0.9430542,-0.09063721,5.578125,-2.40625,-3.015625
1635452275212,-0.39672852,0.9994507,-0.112854004,2.703125,-4.203125,-6.8125
1635452275268,-0.33447266,0.94403076,-0.20343018,-3.5,-4.734375,-8.875
1635452275306,-0.42333984,0.8937378,-0.1951294,1.734375,-11.015625,-3.765625
1635452275343,-0.43579102,0.83636475,-0.2588501,2.953125,-10.8125,-0.046875
1635452275381,-0.5048828,0.8016968,-0.37530518,16.984375,-5.640625,1.828125
1635452275418,-0.45336914,0.83099365,-0.2649536,10.375,-13.578125,-3.546875
1635452275456,-0.4182129,0.81414795,-0.2727661,3.84375,-14.46875,-4.0
1635452275493,-0.44848633,0.82806396,-0.27056885,2.828125,-12.390625,2.734375
1635452275531,-0.501709,0.9122925,-0.2769165,3.28125,-11.796875,7.59375
1635452275568,-0.5432129,0.95477295,-0.21905518,7.46875,-7.890625,5.671875
1635452275606,-0.45532227,0.85614014,-0.16656494,8.90625,-2.5,-2.171875
1635452275662,-0.3166504,0.80926514,-0.20806885,3.0,-8.59375,-5.359375
1635452275699,-0.34838867,0.8095093,-0.25201416,-1.109375,-10.234375,5.828125
1635452275741,-0.47680664,0.82611084,-0.22808838,5.71875,-7.875,12.828125
1635452275775,-0.5432129,0.8510132,-0.23370361,5.984375,-8.234375,9.65625
1635452275812,-0.5300293,0.84906006,-0.23443604,5.140625,-7.46875,4.265625
1635452275850,-0.53637695,0.7650757,-0.17095947,9.75,-1.84375,3.828125
1635452275887,-0.5227051,0.8187866,-0.1531372,0.453125,2.0625,4.375
1635452275925,-0.5698242,0.918396,-0.15167236,-2.9375,3.46875,0.75
1635452275962,-0.5852051,1.0482788,-0.105529785,13.515625,8.59375,-0.546875
1635452276056,-0.46533203,1.0143433,-0.026916504,16.921875,13.578125,-4.71875
1635452276058,-0.3330078,0.87249756,-0.0095825195,1.234375,7.234375,-2.46875
1635452276094,-0.40820312,0.9508667,0.078063965,4.71875,-3.96875,8.40625
1635452276131,-0.47998047,1.1068726,0.09490967,-1.828125,1.46875,8.90625
1635452276168,-0.52197266,1.1478882,0.009460449,-1.5625,1.765625,0.65625
1635452276206,-0.4416504,1.0963745,-0.05718994,1.59375,-1.828125,-6.0625
1635452276243,-0.42407227,0.81170654,-0.0095825195,6.0625,-0.53125,-2.546875
1635452276281,-0.40795898,0.69573975,0.06585693,10.15625,0.0,4.625
1635452276319,-0.4506836,0.65374756,0.04827881,12.015625,2.375,8.96875
1635452276356,-0.4897461,0.7736206,0.0048217773,6.109375,2.078125,7.765625
1635452276393,-0.49609375,0.8912964,-0.0068969727,2.625,4.203125,-1.609375
1635452276430,-0.4675293,0.9442749,-0.043029785,6.15625,2.859375,-7.8125
1635452276487,-0.43310547,0.93963623,-0.05279541,3.578125,3.125,-5.5
1635452276524,-0.49951172,0.91864014,-0.020324707,2.609375,4.8125,0.15625
1635452276562,-0.55615234,0.914978,0.06732178,1.25,4.296875,-1.625
1635452276599,-0.49291992,0.84173584,0.008483887,11.671875,7.109375,-6.671875
1635452276639,-0.43701172,0.83392334,0.020446777,3.953125,0.375,-7.0
1635452276675,-0.48632812,0.9110718,-0.00982666,-5.203125,5.390625,-1.234375
1635452276713,-0.50878906,0.9489136,-0.041809082,2.75,12.5625,0.09375
1635452276751,-0.52441406,0.8607788,-0.020324707,-0.140625,7.703125,-2.015625
1635452276788,-0.5720215,0.83465576,-0.013000488,-4.421875,11.40625,-2.734375
1635452276825,-0.51538086,0.82855225,-0.015686035,-0.4375,19.046875,-5.71875
1635452276881,-0.43603516,0.8851929,-0.039367676,-5.203125,12.125,-6.109375
1635452276919,-0.42700195,0.9281616,-0.055725098,-7.78125,13.796875,-4.515625
1635452276956,-0.44360352,0.91522217,-0.0032348633,-4.3125,14.828125,-4.0
1635452276993,-0.46313477,0.9594116,-0.05279541,-10.84375,10.125,-3.15625
1635452277037,-0.49047852,0.90496826,-0.093566895,-6.4375,12.734375,-4.046875
1635452277069,-0.5732422,0.90008545,-0.094055176,-10.140625,10.875,-2.203125
1635452277106,-0.5891113,0.9706421,-0.09527588,-13.71875,17.09375,4.25
1635452277144,-0.47387695,0.9191284,-0.12237549,0.984375,20.234375,-1.140625
1635452277182,-0.36279297,0.84661865,-0.051330566,0.609375,8.078125,-5.859375
1635452277219,-0.37158203,0.8710327,-0.1194458,-11.90625,2.71875,-2.25
1635452277276,-0.4560547,0.8727417,-0.11480713,-7.078125,9.25,7.484375
1635452277313,-0.50024414,0.8422241,-0.09039307,1.546875,11.046875,7.53125
1635452277350,-0.48291016,0.8019409,-0.07208252,1.015625,5.25,1.953125
1635452277387,-0.5317383,0.89520264,-0.06378174,-6.0,-0.21875,3.03125
1635452277425,-0.50683594,1.0475464,-0.1795044,-5.453125,2.546875,6.71875
1635452277462,-0.44921875,0.92767334,-0.19488525,0.109375,0.765625,3.828125
1635452277499,-0.44213867,0.76239014,-0.07525635,5.15625,-6.671875,3.4375
1635452277537,-0.4309082,0.83929443,0.031433105,4.140625,-6.640625,4.0
1635452277574,-0.3894043,0.91571045,-0.02935791,-9.359375,-4.078125,2.328125
1635452277612,-0.36547852,1.0568237,-0.11260986,-2.78125,-1.390625,-0.125
1635452277649,-0.3864746,1.0380249,-0.18511963,1.515625,-1.359375,-4.234375
1635452277706,-0.42114258,0.9159546,-0.14190674,2.296875,-0.765625,-4.6875
1635452277743,-0.44702148,0.83026123,-0.0635376,4.703125,-0.8125,-3.515625
1635452277781,-0.40063477,0.8463745,-0.028869629,7.5625,-4.921875,-2.4375
1635452277818,-0.3803711,0.91033936,-0.11065674,1.109375,-7.078125,0.015625
1635452277856,-0.43652344,0.96795654,-0.1506958,-1.0625,-3.6875,2.359375
1635452277893,-0.48828125,0.9098511,-0.17852783,-1.71875,-1.546875,-1.375
1635452277931,-0.52490234,0.869812,-0.128479,2.421875,-0.796875,-3.515625
1635452277968,-0.47802734,0.86932373,-0.12945557,7.5625,1.65625,-3.625
1635452278006,-0.42041016,0.8876343,-0.16217041,2.84375,1.171875,-4.640625
1635452278043,-0.39697266,0.86834717,-0.23590088,-2.796875,-1.515625,-4.265625
1635452278100,-0.4440918,0.89105225,-0.24029541,-0.28125,-4.3125,1.359375
1635452278137,-0.43725586,0.8739624,-0.253479,2.65625,-4.296875,0.34375
1635452278175,-0.47387695,0.83392334,-0.30474854,0.921875,-11.9375,-1.15625
1635452278213,-0.4970703,0.8300171,-0.26715088,9.0625,-12.5,1.109375
1635452278250,-0.55200195,0.8617554,-0.1560669,12.640625,-5.453125,1.5
1635452278287,-0.4387207,0.79901123,-0.14556885,5.390625,-0.3125,-5.59375
1635452278325,-0.36865234,0.7531128,-0.23028564,-4.453125,-3.984375,-3.4375
1635452278362,-0.41992188,0.8258667,-0.25982666,-4.375,-6.421875,8.75
1635452278400,-0.5529785,0.88275146,-0.24249268,8.421875,-3.40625,10.953125
1635452278438,-0.5617676,0.88983154,-0.19903564,10.453125,-3.796875,0.828125
1635452278494,-0.4326172,0.76776123,-0.21368408,2.859375,-4.96875,-5.890625
1635452278531,-0.4338379,0.72088623,-0.17974854,-0.09375,-5.859375,3.125
1635452278572,-0.55981445,0.82977295,-0.20245361,0.484375,0.359375,14.40625
1635452278606,-0.6044922,1.0587769,-0.25958252,-5.9375,1.515625,5.390625
1635452278644,-0.58862305,1.0202026,-0.2649536,3.609375,-0.78125,-5.046875
1635452278681,-0.58740234,0.855896,-0.12017822,15.578125,3.578125,-3.28125
1635452278718,-0.5571289,0.85980225,-0.0029907227,5.109375,13.453125,-2.265625
1635452278756,-0.45336914,0.94085693,0.0018920898,-1.734375,15.578125,0.453125
1635452278795,-0.35717773,1.0907593,0.011657715,-0.4375,15.5,-0.78125
1635452278832,-0.4362793,1.1456909,0.0048217773,-1.8125,7.609375,2.171875
1635452278887,-0.54418945,1.027771,0.018249512,2.578125,16.15625,4.25
1635452278925,-0.44189453,0.84490967,0.043395996,-2.5,9.125,-5.78125
1635452278963,-0.3515625,0.75164795,-0.0015258789,2.28125,4.09375,-4.65625
1635452279000,-0.4050293,0.73309326,0.008239746,12.265625,9.171875,7.578125
1635452279038,-0.44189453,0.8121948,0.035095215,6.0,9.421875,6.859375
1635452279074,-0.46166992,0.92596436,-0.042053223,0.15625,3.59375,-4.546875
1635452279113,-0.43969727,0.9894409,-0.08721924,7.484375,3.390625,-6.671875
1635452279150,-0.4453125,0.9105835,-0.04840088,10.328125,6.234375,-2.328125
1635452279187,-0.47265625,0.8163452,0.043640137,3.9375,5.53125,-1.28125
1635452279225,-0.46850586,0.8759155,-0.003479004,8.1875,3.421875,-2.828125
1635452279265,-0.47631836,0.8727417,-0.02935791,9.375,4.9375,-3.140625
1635452279319,-0.49560547,0.9110718,0.057800293,4.4375,5.96875,-0.03125
1635452279357,-0.4729004,0.9401245,-0.027893066,3.515625,9.46875,-5.375
1635452279394,-0.4724121,0.87835693,-0.026672363,4.640625,-1.453125,-4.28125
1635452279431,-0.5510254,0.90423584,-0.013000488,-2.421875,2.015625,1.71875
1635452279468,-0.5852051,0.8456421,-0.018615723,4.46875,13.796875,-1.421875
1635452279506,-0.54345703,0.7831421,-0.043029785,-0.515625,7.140625,-6.203125
1635452279544,-0.5126953,0.8353882,0.0099487305,-2.09375,8.59375,-6.84375
1635452279581,-0.47924805,0.9032593,0.026062012,3.625,11.578125,-3.015625
1635452279622,-0.42822266,0.98968506,-0.05328369,-4.421875,9.734375,-5.359375
1635452279656,-0.42529297,0.88397217,-0.019836426,4.6875,6.453125,-5.9375
1635452279713,-0.43554688,0.78826904,0.007751465,-2.296875,0.09375,-3.3125
1635452279750,-0.5283203,0.8668823,-0.07110596,-8.90625,-1.9375,4.8125
1635452279787,-0.60180664,0.94207764,-0.1104126,-2.28125,4.921875,7.1875
1635452279825,-0.595459,0.9125366,-0.07989502,-1.6875,5.234375,0.6875
1635452279881,-0.5070801,0.80584717,-0.07281494,-2.875,3.109375,-4.375
1635452279902,-0.46533203,0.7819214,-0.0647583,-5.65625,0.25,0.65625
1635452279937,-0.54248047,0.9579468,-0.06109619,-6.21875,-0.40625,12.078125
1635452279974,-0.50341797,1.0648804,-0.18145752,-6.9375,-0.03125,11.09375
1635452280012,-0.45092773,0.84783936,-0.10430908,1.421875,-5.96875,4.96875
1635452280050,-0.36767578,0.74627686,0.09124756,6.5,-7.78125,1.234375
1635452280106,-0.35253906,0.8685913,0.121032715,-3.40625,-6.140625,2.078125
1635452280143,-0.34521484,1.0985718,-0.093811035,-13.484375,-4.859375,1.25
1635452280182,-0.40942383,1.1640015,-0.20635986,2.421875,0.0,-2.6875
1635452280218,-0.4248047,0.93743896,-0.044006348,14.234375,1.21875,-8.796875
1635452280256,-0.3947754,0.7994995,0.009216309,6.765625,-4.046875,-10.328125
1635452280293,-0.3642578,0.78900146,-0.047912598,-0.0625,-6.234375,-2.65625
1635452280331,-0.42382812,0.86834717,-0.13995361,0.578125,-1.359375,5.609375
1635452280369,-0.5151367,0.96868896,-0.1531372,2.28125,1.078125,5.09375
1635452280406,-0.51123047,0.94085693,-0.08306885,8.453125,-0.296875,-4.21875
1635452280443,-0.40478516,0.8690796,-0.101623535,3.9375,-6.625,-10.265625
1635452280480,-0.37719727,0.8932495,-0.13311768,-0.265625,-6.515625,-3.75
1635452280537,-0.43066406,0.88616943,-0.13824463,0.9375,0.046875,5.078125
1635452280574,-0.49389648,0.8932495,-0.1819458,3.59375,-0.734375,4.5
1635452280612,-0.5124512,0.86102295,-0.21026611,5.1875,-5.34375,-1.1875
1635452280650,-0.50805664,0.86712646,-0.20489502,6.109375,-7.96875,-2.671875
1635452280687,-0.45703125,0.8168335,-0.21588135,5.671875,-8.984375,-3.046875
1635452280725,-0.4855957,0.8566284,-0.15362549,9.53125,-11.34375,2.578125
1635452280762,-0.46948242,0.8759155,-0.12042236,10.03125,-4.78125,0.984375
1635452280800,-0.3984375,0.85369873,-0.16021729,-0.8125,-8.890625,-2.84375
1635452280837,-0.40429688,0.83148193,-0.23150635,-1.875,-11.15625,1.625
1635452280874,-0.4724121,0.8012085,-0.2210083,2.921875,-11.015625,6.984375
1635452280949,-0.52783203,0.84124756,-0.18951416,7.703125,-14.65625,7.265625
1635452280969,-0.5473633,0.84246826,-0.15484619,9.46875,-11.390625,2.328125
1635452281005,-0.56030273,0.8307495,-0.14971924,5.1875,-7.40625,2.546875
1635452281043,-0.53515625,0.86590576,-0.11895752,2.0625,-0.703125,4.0625
1635452281080,-0.55371094,0.93499756,-0.11602783,-1.5,0.0625,2.109375
1635452281119,-0.57055664,0.98895264,-0.113586426,0.3125,-1.0625,3.46875
1635452281156,-0.5241699,0.95355225,-0.06890869,6.015625,6.859375,2.484375
1635452281193,-0.50219727,0.84832764,0.066101074,6.875,7.890625,1.4375
1635452281231,-0.60058594,0.9718628,0.18865967,-24.15625,9.359375,2.84375
1635452281363,-0.50927734,1.0975952,0.04852295,-18.359375,14.328125,5.109375
1635452281366,-0.4819336,1.2164917,-0.09185791,-10.703125,14.109375,-2.125
1635452281369,-0.40820312,0.9328003,-0.07281494,3.96875,10.75,-8.53125
1635452281399,-0.36401367,0.7177124,0.0138549805,10.40625,6.890625,-3.28125
1635452281437,-0.37939453,0.6688843,0.042175293,10.203125,8.390625,3.9375
1635452281474,-0.4008789,0.76776123,-0.0012817383,1.078125,5.359375,6.890625
1635452281512,-0.49047852,0.9640503,-0.06500244,-4.359375,0.9375,2.265625
1635452281549,-0.51416016,0.98309326,-0.07745361,7.765625,0.5,-6.9375
1635452281590,-0.48901367,0.92840576,-0.025939941,12.96875,-0.78125,-8.546875
1635452281624,-0.46142578,0.8578491,-0.011047363,11.546875,4.546875,-3.828125
1635452281662,-0.44726562,0.86590576,0.002380371,6.671875,2.09375,0.0625
1635452281699,-0.4807129,0.90789795,-0.02130127,7.546875,2.125,-1.15625
1635452281756,-0.49194336,0.8522339,0.008728027,12.203125,4.09375,-2.75
1635452281793,-0.47583008,0.84832764,0.020202637,6.875,0.140625,-2.28125
1635452281831,-0.49438477,0.88690186,-0.00982666,3.9375,2.078125,-0.9375
1635452281869,-0.4909668,0.90618896,-0.008117676,5.6875,3.015625,-2.78125
1635452281906,-0.48291016,0.8602905,-0.022521973,-1.203125,3.328125,-7.46875
1635452281943,-0.49169922,0.79071045,-0.0049438477,-1.65625,1.359375,-8.125
1635452281981,-0.5061035,0.8226929,0.0060424805,-0.46875,2.296875,-4.578125
1635452282018,-0.5107422,0.9413452,0.00579834,1.578125,7.28125,-1.546875
1635452282056,-0.49365234,0.9813843,-0.055480957,-5.140625,7.21875,-3.703125
1635452282093,-0.5004883,0.99017334,-0.070129395,-3.796875,2.296875,-3.640625
1635452282149,-0.51708984,0.87371826,-0.058410645,2.203125,1.796875,-3.90625
1635452282188,-0.51171875,0.76898193,-0.01763916,3.53125,1.28125,-1.953125
1635452282226,-0.5209961,0.77557373,0.010925293,3.34375,5.046875,-0.46875
1635452282262,-0.5253906,0.869812,-0.10211182,-6.984375,5.5,2.046875
1635452282299,-0.57910156,0.9557495,-0.11480713,-10.25,5.71875,1.765625
1635452282337,-0.5354004,0.9491577,-0.09454346,-2.015625,8.265625,-1.046875
1635452282375,-0.45507812,0.87371826,-0.08770752,-3.015625,5.40625,-0.359375
1635452282415,-0.4807129,0.84368896,-0.08404541,-2.109375,4.109375,3.515625
1635452282449,-0.5090332,0.8234253,-0.042053223,-0.53125,4.5625,6.390625
1635452282487,-0.47729492,0.9555054,-0.08917236,1.1875,0.375,11.828125
1635452282543,-0.43676758,1.0089722,-0.22052002,-10.25,-5.15625,8.21875
1635452282581,-0.44580078,0.8480835,-0.10797119,4.640625,-8.3125,5.109375
1635452282624,-0.4152832,0.8168335,0.105163574,16.578125,-6.140625,1.234375
1635452282656,-0.34936523,0.8641968,-0.05596924,-8.21875,-6.578125,-1.34375
1635452282693,-0.42382812,1.0870972,-0.19390869,-18.796875,-3.578125,2.3125
1635452282731,-0.4736328,0.99432373,-0.08673096,7.59375,9.96875,-2.71875
1635452282768,-0.3852539,0.7963257,-0.04156494,1.953125,-0.8125,-12.34375
1635452282806,-0.3803711,0.8300171,-0.113586426,-10.046875,-4.4375,-9.96875
